time_ns,ax,ay,az,wx,wy,wz
1765227748812139847,-7.749,-3.708,-4.834,0.0008,0.000466,0.00022
1765227748837246139,-7.755,-3.717,-4.797,0.000667,-0.000656,4.5e-05
1765227748861974847,-7.715,-3.724,-4.786,0.001079,0.000315,-0.002847
1765227748886973597,-7.706,-3.776,-4.834,0.000925,0.001162,0.000762
1765227748911945930,-7.729,-3.761,-4.805,-0.000626,-0.001636,0.000941
1765227748938261682,-7.754,-3.694,-4.823,0.001966,-5.6e-05,1.8e-05
1765227748962774098,-7.748,-3.721,-4.804,0.001429,0.000701,-0.000167
1765227748986642013,-7.727,-3.717,-4.798,-0.000632,-0.00132,5.9e-05
1765227749012643306,-7.719,-3.719,-4.816,0.002023,-0.000628,-0.000287
1765227749036795347,-7.742,-3.715,-4.779,0.000519,0.001829,-7.3e-05
1765227749062598432,-7.716,-3.733,-4.856,-8.5e-05,0.000449,-0.000287
1765227749087560682,-7.719,-3.742,-4.801,-0.000558,0.001082,-0.000654
1765227749112493223,-7.742,-3.703,-4.804,-0.00065,-0.000196,0.001517
1765227749137525390,-7.734,-3.714,-4.832,0.000237,-0.001947,-0.000968
1765227749162459932,-7.719,-3.709,-4.817,-0.000688,-0.002443,0.000267
1765227749187438848,-7.74,-3.716,-4.833,-0.000187,0.001064,-0.000261
1765227749212606765,-7.736,-3.724,-4.833,0.000484,9.4e-05,8.7e-05
1765227749237534057,-7.704,-3.738,-4.804,0.000589,-0.001054,0.000154
1765227749262335474,-7.703,-3.723,-4.844,-0.000561,0.00034,-0.00022
1765227749287335932,-7.748,-3.723,-4.825,0.000947,-0.000877,0.000256
1765227749312296890,-7.752,-3.694,-4.805,0.000674,-0.000611,-0.000233
1765227749337342640,-7.768,-3.718,-4.827,0.001434,0.000353,-0.000477
1765227749362279557,-7.711,-3.703,-4.85,-0.002277,0.001685,0.000356
1765227749387213974,-7.738,-3.717,-4.86,-0.000241,-0.001497,-0.000487
1765227749412142849,-7.734,-3.725,-4.849,0.000203,-0.001148,-8.7e-05
1765227749437240266,-7.736,-3.728,-4.822,0.000193,-0.001439,-0.000474
1765227749462029682,-7.748,-3.707,-4.815,0.001546,-0.00074,0.00129
1765227749487085974,-7.735,-3.729,-4.824,-0.000363,2.5e-05,-0.000298
1765227749512009057,-7.709,-3.716,-4.825,-0.002498,-0.001347,-0.000818
1765227749536988474,-7.722,-3.738,-4.823,0.001536,-0.000805,0.000351
1765227749562102891,-7.729,-3.718,-4.799,0.00336,-7.1e-05,-0.000417
1765227749586996266,-7.736,-3.723,-4.785,0.000749,-0.000269,0.000748
1765227749612017891,-7.731,-3.718,-4.827,-0.002395,-0.000985,0.00081
1765227749636983516,-7.726,-3.705,-4.842,-0.000124,-0.000452,-0.000779
1765227749662936518,-7.724,-3.728,-4.821,0.00212,0.000911,0.000957
1765227749688008351,-7.718,-3.723,-4.798,0.001112,-0.001125,0.000489
1765227749712879184,-7.747,-3.747,-4.773,-0.001671,-0.001381,8.8e-05
1765227749736852016,-7.73,-3.705,-4.837,0.001367,-0.002646,-0.000826
1765227749762797893,-7.755,-3.71,-4.851,-0.000273,-0.000279,-0.000632
1765227749787812226,-7.734,-3.706,-4.833,0.000993,0.00103,-0.001419
1765227749812837851,-7.71,-3.728,-4.789,-0.000621,0.000373,-0.000565
1765227749837802726,-7.721,-3.759,-4.824,-0.001167,0.00077,-0.001193
1765227749862865435,-7.738,-3.717,-4.814,-0.001129,-0.001633,-0.000834
1765227749887821352,-7.736,-3.714,-4.817,-0.001457,-0.000214,0.000823
1765227749912697893,-7.725,-3.703,-4.771,7e-06,0.00066,-0.000845
1765227749937969144,-7.722,-3.683,-4.829,-0.000372,-0.001753,0.000328
1765227749963182561,-7.852,-3.735,-4.826,-0.000473,-0.000774,-0.00136
1765227749988206353,-7.667,-3.709,-4.779,0.002975,-0.001509,0.001198
1765227750013022477,-7.749,-3.733,-4.788,0.000132,-0.0006,-0.003452
1765227750038443228,-7.716,-3.719,-4.827,-0.000681,-0.002754,-5.8e-05
1765227750063194186,-7.673,-3.716,-4.818,0.002956,-0.002267,-0.000298
1765227750088473812,-7.747,-3.688,-4.791,0.000354,-0.000822,0.000195
1765227750113070145,-7.735,-3.721,-4.792,0.00092,-0.000447,0.001171
1765227750138283270,-7.763,-3.751,-4.8,-0.000454,0.000915,-0.000147
1765227750163216812,-7.769,-3.745,-4.829,-0.006554,0.001344,-1.4e-05
1765227750188025978,-7.687,-3.694,-4.807,0.001783,-0.000569,0.000812
1765227750213358312,-7.756,-3.689,-4.831,-0.000474,0.001176,-0.000324
1765227750237386602,-7.7,-3.679,-4.813,-0.000299,-0.001574,-0.000526
1765227750262948562,-7.73,-3.739,-4.824,0.001262,-0.000498,0.001331
1765227750288629396,-7.743,-3.729,-4.763,0.000925,0.001043,-0.000724
1765227750312691353,-7.7,-3.725,-4.792,0.000541,-0.002212,0.001211
1765227750337257644,-7.735,-3.71,-4.838,-0.000868,-0.000505,-0.001835
1765227750362151686,-7.728,-3.691,-4.812,-0.000772,-0.000595,-7.8e-05
1765227750387113811,-7.728,-3.731,-4.826,1.5e-05,-0.000958,0.000433
1765227750413208771,-7.744,-3.731,-4.792,-0.000333,0.000406,-0.001018
1765227750437060019,-7.706,-3.736,-4.824,0.00202,-0.000938,0.000689
1765227750462997438,-7.713,-3.722,-4.811,0.001295,0.000795,-0.001112
1765227750487067145,-7.723,-3.717,-4.817,-0.000214,-0.000933,0.000276
1765227750513104063,-7.721,-3.696,-4.798,0.00096,0.00032,0.000343
1765227750538289647,-7.75,-3.693,-4.834,-0.00048,0.000954,-0.001748
1765227750563442939,-7.756,-3.722,-4.794,-9.3e-05,0.001037,-0.000595
1765227750588032772,-7.752,-3.748,-4.803,7e-05,-0.00019,0.001485
1765227750613269689,-7.731,-3.722,-4.795,0.000603,-0.000818,0.001163
1765227750638524731,-7.752,-3.739,-4.848,0.002183,-0.000856,3.5e-05
1765227750663156272,-7.7,-3.715,-4.839,-0.000756,-0.0001,-0.002341
1765227750688670148,-7.727,-3.72,-4.815,0.000335,-0.000684,-7e-05
1765227750713180814,-7.735,-3.718,-4.826,0.001564,-0.000953,-0.000325
1765227750738564190,-7.734,-3.704,-4.803,0.000288,0.000102,0.000611
1765227750763243106,-7.728,-3.733,-4.821,-0.001132,-0.001857,-0.000752
1765227750788362148,-7.72,-3.717,-4.845,0.000354,-0.001473,-0.000352
1765227750813577024,-7.715,-3.715,-4.82,0.000696,-0.001311,0.000737
1765227750837990606,-7.718,-3.739,-4.824,0.001573,-0.000486,0.000385
1765227750862976356,-7.729,-3.713,-4.815,-0.000289,-0.001024,7.8e-05
1765227750888835608,-7.749,-3.718,-4.814,0.001086,-0.000545,0.000812
1765227750912990732,-7.731,-3.725,-4.826,-0.002054,0.00134,-0.000477
1765227750937380564,-7.731,-3.716,-4.805,7.3e-05,-0.001047,0.000183
1765227750962459273,-7.714,-3.697,-4.801,0.000432,-0.000292,-0.000416
1765227750987938482,-7.716,-3.714,-4.815,0.002138,-0.000148,0.000952
1765227751012901024,-7.698,-3.732,-4.789,0.000607,-4.3e-05,0.000273
1765227751037642440,-7.729,-3.691,-4.794,0.000694,0.000714,-0.000439
1765227751062506690,-7.707,-3.693,-4.804,0.000315,-0.001458,0.00037
1765227751087517148,-7.812,-3.857,-4.928,-0.003753,-0.006378,-0.000861
1765227751112739191,-7.724,-3.637,-4.841,0.002643,0.00052,-0.005828
1765227751137980399,-7.738,-3.698,-4.794,0.000206,-0.006899,0.00941
1765227751162282607,-7.7,-3.747,-4.859,0.001062,0.006841,-0.010765
1765227751187583774,-7.749,-3.747,-4.767,-0.00173,-0.003869,0.004114
1765227751213109608,-7.712,-3.756,-4.823,-0.000135,0.00022,-0.002149
1765227751237045315,-7.746,-3.724,-4.834,-0.001997,0.002306,-0.00343
1765227751262971942,-7.759,-3.725,-4.803,-0.003399,-0.001108,0.00126
1765227751287894067,-7.74,-3.728,-4.781,0.003184,-0.000703,0.001787
1765227751312936609,-7.752,-3.728,-4.826,0.000249,0.000524,-0.001205
1765227751336992441,-7.744,-3.734,-4.804,-0.001004,0.0005,-0.00154
1765227751362945109,-7.707,-3.718,-4.841,0.000632,-0.000935,0.000741
1765227751388296401,-7.713,-3.713,-4.826,-0.000623,0.000368,0.000199
1765227751412790234,-7.723,-3.704,-4.821,0.002576,0.000163,0.000191
1765227751437732359,-7.748,-3.689,-4.828,0.001214,0.000912,-0.000526
1765227751462708859,-7.748,-3.696,-4.764,-0.001138,0.000566,-0.000638
1765227751487900610,-7.736,-3.733,-4.802,-0.00052,-0.000111,-0.000524
1765227751513181569,-7.695,-3.712,-4.82,-0.001012,0.001393,-0.001111
1765227751538175569,-7.703,-3.713,-4.823,-4e-06,-0.000324,-9.7e-05
1765227751562965860,-7.711,-3.716,-4.87,0.003769,-0.000132,0.000503
1765227751588004777,-7.761,-3.69,-4.811,3.9e-05,0.001685,-0.001124
1765227751613216986,-7.731,-3.733,-4.817,0.000274,-0.000133,0.000123
1765227751638995237,-7.702,-3.725,-4.851,-0.001812,0.001521,-0.000232
1765227751663081069,-7.738,-3.74,-4.821,-7.3e-05,-0.001456,0.001453
1765227751688705321,-7.728,-3.711,-4.779,0.002199,-0.000656,-0.000721
1765227751712630694,-7.725,-3.728,-4.803,-0.001154,-0.000381,-0.001245
1765227751740561199,-7.74,-3.696,-4.806,0.000337,-0.001623,-0.00126
1765227751762964486,-7.728,-3.71,-4.832,0.000582,-0.001221,-0.001126
1765227751788081070,-7.742,-3.725,-4.824,-0.000927,-0.000712,-0.001258
1765227751812612778,-7.735,-3.719,-4.82,0.000416,-0.00055,0.000433
1765227751837684278,-7.739,-3.72,-4.83,0.001168,-0.000204,0.000708
1765227751862589361,-7.731,-3.713,-4.834,9.5e-05,-0.001297,0.0007
1765227751887165569,-7.75,-3.728,-4.82,0.000537,-0.00025,-5.1e-05
1765227751912204903,-7.735,-3.721,-4.829,-0.001082,-0.001156,-0.001027
1765227751937414695,-7.728,-3.747,-4.827,0.000839,-0.00051,-0.000404
1765227751963989614,-7.761,-3.718,-4.82,0.001409,-0.000693,0.000211
1765227751987318070,-7.701,-3.708,-4.793,9.6e-05,-0.00078,0.002387
1765227752012959863,-7.78,-3.714,-4.836,0.000543,0.000991,6.3e-05
1765227752036871695,-7.744,-3.694,-4.791,-0.000987,0.002896,-0.004622
1765227752062895905,-7.724,-3.733,-4.848,-1.4e-05,-0.003029,0.004074
1765227752087856822,-7.686,-3.703,-4.829,0.001195,0.001145,-0.001931
1765227752112786530,-7.697,-3.717,-4.797,0.004207,-0.002368,0.005406
1765227752136877779,-7.764,-3.726,-4.789,0.000651,0.001951,-0.001245
1765227752162882072,-7.784,-3.739,-4.731,-0.003819,0.000837,0.000505
1765227752188098073,-7.705,-3.698,-4.856,-0.001108,-0.001256,-0.001926
1765227752212924489,-7.744,-3.722,-4.819,-0.001275,0.001382,-0.004222
1765227752238199823,-7.749,-3.729,-4.8,0.000564,0.000586,0.000323
1765227752262890573,-7.705,-3.733,-4.911,0.005237,-0.003262,0.005876
1765227752287973907,-7.745,-3.7,-4.823,-0.001746,0.001751,-0.004553
1765227752313287407,-7.798,-3.734,-4.834,-0.004678,0.00145,-0.001991
1765227752338065740,-7.749,-3.756,-4.81,0.003102,-0.001892,0.003508
1765227752363132907,-7.712,-3.721,-4.853,0.000103,0.002016,0.0014
1765227752387700324,-7.751,-3.73,-4.785,-0.000246,0.001091,0.001346
1765227752412487990,-7.728,-3.768,-4.816,0.000112,0.001943,-0.000496
1765227752437458740,-7.729,-3.702,-4.846,0.003652,0.001428,-0.000777
1765227752462389449,-7.714,-3.682,-4.833,0.001263,-0.00751,0.00498
1765227752487290032,-7.718,-3.719,-4.84,0.003038,0.002553,-0.005483
1765227752512258157,-7.736,-3.766,-4.816,-0.000222,-0.00495,0.001998
1765227752537286782,-7.703,-3.762,-4.803,0.003398,3.3e-05,0.002556
1765227752562233907,-7.736,-3.712,-4.822,-0.000114,-0.000266,0.00041
1765227752587245283,-7.765,-3.699,-4.797,0.001658,-0.000535,0.001479
1765227752612357283,-7.713,-3.685,-4.846,0.000399,-0.001436,0.000115
1765227752637214616,-7.745,-3.685,-4.853,-0.001783,0.001273,-0.000724
1765227752662235283,-7.729,-3.704,-4.826,0.005734,0.000545,0.000797
1765227752687526700,-7.739,-3.722,-4.832,-8.4e-05,-0.001366,-0.000148
1765227752712675659,-7.717,-3.702,-4.832,-0.00136,-1.2e-05,-3e-06
1765227752738085452,-7.74,-3.705,-4.837,0.000826,-0.002177,-0.000484
1765227752763178702,-7.736,-3.723,-4.825,0.000677,-0.000222,0.001507
1765227752788417828,-7.738,-3.708,-4.843,-0.001176,0.000834,-0.003369
1765227752813588328,-7.742,-3.715,-4.797,-0.000505,0.000451,0.001105
1765227752837428868,-7.728,-3.72,-4.835,0.000191,-0.000882,-0.001379
1765227752863619287,-7.708,-3.702,-4.872,-0.00597,-0.001119,-0.002794
1765227752887403993,-7.672,-3.71,-4.853,0.002594,-0.003494,-0.000329
1765227752913318620,-7.714,-3.701,-4.818,0.000379,-0.004742,-0.002633
1765227752938518412,-7.813,-3.765,-4.762,0.001722,-9e-05,-0.001604
1765227752963243120,-7.753,-3.75,-4.748,-0.000336,0.000379,0.000199
1765227752988321954,-7.729,-3.777,-4.781,-0.001149,0.000101,0.000451
1765227753013727080,-7.698,-3.705,-4.855,-0.001788,0.003259,0.000627
1765227753038290371,-7.686,-3.718,-4.872,-0.000117,0.001244,0.001052
1765227753063254788,-7.739,-3.7,-4.871,0.002684,0.000627,0.000904
1765227753087702412,-7.729,-3.707,-4.827,0.002459,-0.000913,0.002056
1765227753113154330,-7.738,-3.729,-4.793,0.00223,-0.000639,0.000925
1765227753138219205,-7.746,-3.697,-4.793,-0.000475,-0.001494,-0.001455
1765227753162712871,-7.747,-3.726,-4.81,0.00066,-0.000491,-0.000871
1765227753187863163,-7.708,-3.719,-4.797,0.000529,0.001193,0.002096
1765227753213040414,-7.725,-3.715,-4.835,-0.000698,0.000179,0.00256
1765227753237855455,-7.716,-3.713,-4.829,0.000126,-0.002086,-0.000311
1765227753262716705,-7.732,-3.716,-4.845,0.000319,0.000455,-0.000845
1765227753287893622,-7.734,-3.727,-4.84,0.000567,-0.000357,-0.000524
1765227753313065373,-7.757,-3.74,-4.788,0.000126,-0.000546,0.002295
1765227753338260123,-7.72,-3.735,-4.813,0.000277,-0.000792,-0.000352
1765227753363103623,-7.745,-3.713,-4.831,-0.00084,-0.000858,-0.001495
1765227753388078290,-7.666,-3.71,-4.809,-0.000366,0.000514,1.2e-05
1765227753412112039,-7.723,-3.735,-4.824,0.002291,-0.00201,0.002721
1765227753437055872,-7.71,-3.68,-4.814,0.004341,-0.000431,0.000211
1765227753462128914,-7.767,-3.666,-4.819,-0.000119,0.000615,-0.001378
1765227753486936581,-7.702,-3.711,-4.803,-0.000954,-0.001416,-0.00218
1765227753511888289,-7.715,-3.742,-4.819,-0.00087,0.001488,-0.000196
1765227753536904289,-7.666,-3.74,-4.812,0.002371,-0.001268,0.001645
1765227753563187958,-7.723,-3.738,-4.823,0.00125,-0.001244,-0.000109
1765227753586967040,-7.706,-3.673,-4.843,0.001862,-0.001973,-0.000752
1765227753612837958,-7.759,-3.681,-4.831,0.000344,-0.000521,9e-05
1765227753637672500,-7.717,-3.684,-4.792,0.000931,0.000826,-0.00135
1765227753663417460,-7.732,-3.721,-4.819,0.000559,8.4e-05,-0.000282
1765227753687714750,-7.73,-3.739,-4.805,-0.000244,0.001016,-0.001549
1765227753712669959,-7.722,-3.727,-4.838,7.3e-05,-0.000776,0.000963
1765227753737588834,-7.694,-3.706,-4.848,0.001514,-0.001152,0.000597
1765227753762887210,-7.74,-3.707,-4.817,0.001356,-0.001221,0.000489
1765227753787624418,-7.747,-3.71,-4.805,0.00145,-0.003036,0.000948
1765227753812541001,-7.749,-3.712,-4.793,-0.000808,0.000677,-0.000709
1765227753837527543,-7.737,-3.739,-4.832,-0.000788,-0.000136,-0.001269
1765227753862442293,-7.719,-3.74,-4.799,0.001178,-0.001075,0.00048
1765227753887555835,-7.749,-3.738,-4.814,0.001776,0.000935,0.000481
1765227753912491669,-7.701,-3.726,-4.829,0.000333,-0.000706,0.000549
1765227753937411460,-7.705,-3.736,-4.846,-0.000144,-0.00039,-0.001883
1765227753962317294,-7.752,-3.715,-4.821,0.000752,-0.000574,0.000825
1765227753987386502,-7.725,-3.721,-4.779,0.003629,0.000699,0.000787
1765227754012364461,-7.774,-3.751,-4.81,-0.00554,0.007787,0.000699
1765227754037346878,-7.713,-3.753,-4.775,-0.000705,0.002102,0.000373
1765227754062181919,-7.732,-3.727,-4.835,0.003042,0.003107,0.005142
1765227754087174878,-7.731,-3.676,-4.834,0.005073,0.002875,0.003833
1765227754112194378,-7.749,-3.716,-4.913,0.00447,-0.001042,-0.002596
1765227754137135253,-7.768,-3.671,-4.799,0.000392,-0.001482,-0.002678
1765227754162042753,-7.777,-3.698,-4.779,-0.002316,-0.001221,-0.001406
1765227754187014420,-7.707,-3.739,-4.824,-0.003762,0.000199,-0.004825
1765227754212024546,-7.681,-3.743,-4.835,-0.006351,-0.003646,-0.004502
1765227754237003504,-7.695,-3.764,-4.854,-0.003118,-0.003644,-0.004142
1765227754262893839,-7.707,-3.753,-4.799,0.001343,-0.000432,0.00171
1765227754286901879,-7.733,-3.75,-4.861,0.001562,0.000115,0.001683
1765227754312867965,-7.742,-3.702,-4.845,-0.000306,-0.003625,-0.002435
1765227754336883255,-7.734,-3.704,-4.792,-0.000451,-0.002134,-0.001244
1765227754362876257,-7.729,-3.719,-4.766,0.001858,0.001095,0.000943
1765227754386787255,-7.694,-3.696,-4.837,-0.00184,-0.000116,-0.001339
1765227754412790924,-7.728,-3.727,-4.839,-0.001212,-0.001447,-0.002271
1765227754437884299,-7.721,-3.732,-4.798,0.000878,-0.00183,-0.000655
1765227754462850799,-7.734,-3.728,-4.822,0.002371,0.001084,0.002604
1765227754487794091,-7.739,-3.723,-4.852,0.000351,-0.001665,0.000279
1765227754512728675,-7.725,-3.724,-4.833,-0.001568,-0.002651,-0.001644
1765227754537819008,-7.737,-3.724,-4.825,0.000832,0.000169,0.000668
1765227754562962467,-7.749,-3.731,-4.823,0.000722,0.000457,-0.000129
1765227754587593592,-7.722,-3.723,-4.84,-2.5e-05,0.000423,-0.002218
1765227754612625550,-7.721,-3.703,-4.829,-0.000453,-0.000426,-0.00176
1765227754637528675,-7.747,-3.73,-4.836,0.001285,-0.001536,0.000613
1765227754662549342,-7.724,-3.729,-4.824,-0.000395,5.1e-05,0.001264
1765227754687422301,-7.733,-3.707,-4.825,-0.000968,-0.000789,-0.000682
1765227754712505926,-7.729,-3.73,-4.814,3.4e-05,0.000542,-0.000413
1765227754737503218,-7.739,-3.72,-4.801,0.00057,-0.000124,0.000388
1765227754762596218,-7.734,-3.73,-4.848,0.000336,-0.000619,-0.000308
1765227754787475260,-7.707,-3.72,-4.81,-0.000867,-0.000516,-7.1e-05
1765227754812549594,-7.705,-3.731,-4.853,0.001845,0.000119,-0.00021
1765227754837723428,-7.733,-3.728,-4.841,0.000532,0.000589,0.000454
1765227754863523429,-7.741,-3.731,-4.833,-0.001081,-0.000826,0.0007
1765227754888285971,-7.741,-3.718,-4.834,0.001126,0.000765,6.6e-05
1765227754913039137,-7.725,-3.727,-4.783,0.000679,0.000693,0.000228
1765227754938171721,-7.729,-3.702,-4.797,0.001332,0.000373,0.00171
1765227754962726096,-7.701,-3.689,-4.796,0.003572,0.001245,0.001652
1765227754988159471,-7.734,-3.737,-4.896,-0.000225,-0.001348,-0.000519
1765227755012664013,-7.671,-3.727,-4.841,-0.001799,-0.00299,-0.002632
1765227755037240679,-7.745,-3.711,-4.83,-0.000788,-0.000637,-0.000881
1765227755064014599,-7.726,-3.72,-4.784,0.003559,-0.000228,0.004034
1765227755087292221,-7.737,-3.682,-4.819,9.3e-05,0.000123,0.001376
1765227755114333850,-7.744,-3.708,-4.802,7.8e-05,-0.000461,-0.002883
1765227755138430390,-7.72,-3.731,-4.833,-0.000233,-0.001665,0.000535
1765227755163401890,-7.721,-3.713,-4.835,0.000418,0.002323,0.001338
1765227755190626019,-7.72,-3.717,-4.837,0.000292,0.000814,-0.000252
1765227755213329474,-7.724,-3.722,-4.82,-0.000228,-0.001272,-0.000454
1765227755237978724,-7.706,-3.7,-4.814,0.00146,-0.001311,0.000609
1765227755262827349,-7.733,-3.708,-4.798,0.001146,8.4e-05,0.000538
1765227755287851266,-7.716,-3.72,-4.806,-0.000588,0.000666,-0.000269
1765227755312968391,-7.71,-3.738,-4.863,-5e-06,-0.001231,-0.000881
1765227755338359851,-7.722,-3.72,-4.809,0.000632,-0.001426,-0.000361
1765227755362929392,-7.714,-3.729,-4.846,0.00032,-0.000626,-8.7e-05
1765227755387965600,-7.734,-3.706,-4.825,0.001225,-0.001341,0.000157
1765227755412703225,-7.743,-3.728,-4.78,0.000689,0.000453,-9.9e-05
1765227755437521184,-7.744,-3.731,-4.839,0.000262,-4.3e-05,0.000519
1765227755462625976,-7.715,-3.714,-4.839,-0.001866,0.001371,-0.000333
1765227755488006143,-7.735,-3.714,-4.819,0.001055,-0.000356,0.000603
1765227755513066227,-7.721,-3.711,-4.825,0.000635,-0.001878,-0.000601
1765227755538259603,-7.733,-3.715,-4.831,0.000933,-0.000269,-0.00112
1765227755562850269,-7.764,-3.713,-4.835,0.000904,-0.000945,0.000669
1765227755588191936,-7.727,-3.719,-4.833,0.000117,0.001276,-0.000331
1765227755613385687,-7.728,-3.735,-4.815,-0.001076,-0.000165,-0.001853
1765227755638184437,-7.711,-3.733,-4.772,0.001023,0.000408,6.1e-05
1765227755663210562,-7.749,-3.72,-4.808,0.00106,0.001719,-0.000454
1765227755688439854,-7.722,-3.724,-4.809,6.3e-05,-0.000952,0.000294
1765227755713113771,-7.719,-3.706,-4.788,0.000385,0.000332,-0.001439
1765227755737690645,-7.725,-3.712,-4.821,0.000381,0.002258,0.000312
1765227755762726396,-7.716,-3.708,-4.826,-0.000267,-0.001994,-0.000844
1765227755788245897,-7.742,-3.721,-4.834,-0.001298,0.001046,-0.000905
1765227755812580354,-7.691,-3.719,-4.857,8.3e-05,-0.000437,-0.001269
1765227755837698646,-7.732,-3.733,-4.82,-0.000869,-6.3e-05,0.00037
1765227755863387356,-7.749,-3.715,-4.822,0.000871,0.000598,-0.000799
1765227755887675980,-7.733,-3.721,-4.812,-0.001121,-0.001693,-2.3e-05
1765227755913462232,-7.747,-3.72,-4.837,0.001496,0.001215,-0.000317
1765227755937484439,-7.712,-3.732,-4.824,0.000237,-0.000241,0.000872
1765227755962995357,-7.729,-3.735,-4.815,0.00082,-0.000846,0.000124
1765227755988208566,-7.719,-3.747,-4.832,-0.000326,-0.000793,0.000684
1765227756013394983,-7.72,-3.733,-4.827,0.000503,-0.000756,-7.7e-05
1765227756038389358,-7.74,-3.706,-4.816,0.00074,0.000265,-0.001011
1765227756063241442,-7.762,-3.726,-4.801,0.000604,-0.001662,3e-06
1765227756087999316,-7.723,-3.712,-4.827,0.000196,-0.00087,-0.000731
1765227756113325567,-7.726,-3.71,-4.807,-0.000819,-0.001264,-5.6e-05
1765227756139314319,-7.742,-3.728,-4.825,0.0001,0.000958,-0.000426
1765227756163206151,-7.712,-3.726,-4.807,-0.000149,-0.000398,-0.00057
1765227756188253860,-7.716,-3.738,-4.818,-0.000678,-0.000375,-0.000918
1765227756213603069,-7.714,-3.712,-4.808,-0.002209,-0.000556,-0.001224
1765227756238187777,-7.728,-3.724,-4.804,0.001006,0.00113,0.000767
1765227756263149027,-7.721,-3.716,-4.829,0.001449,0.001511,0.00053
1765227756288027319,-7.737,-3.694,-4.825,0.000677,-0.00126,0.001228
1765227756313556653,-7.758,-3.682,-4.813,0.00052,-0.000296,-0.000944
1765227756338528654,-7.742,-3.715,-4.806,-0.000266,-0.000692,-0.000288
1765227756362821653,-7.723,-3.734,-4.835,-0.001053,-0.001231,-0.000943
1765227756388988613,-7.73,-3.723,-4.84,-0.000207,-0.00022,-0.001585
1765227756412563486,-7.728,-3.729,-4.866,0.00029,-0.000378,0.000103
1765227756437536778,-7.714,-3.72,-4.806,0.001328,0.000687,-0.000769
1765227756462429403,-7.742,-3.734,-4.844,-0.000512,0.000212,0.000525
1765227756487290528,-7.744,-3.713,-4.8,-0.001005,-0.000801,-0.001078
1765227756512242945,-7.735,-3.702,-4.81,0.001253,0.000243,-0.000142
1765227756537298737,-7.727,-3.696,-4.827,-0.000675,-0.001008,-5.8e-05
1765227756562279654,-7.721,-3.735,-4.823,-0.001373,0.000536,-0.000462
1765227756587149279,-7.732,-3.711,-4.8,-0.000525,-0.001411,-0.00133
1765227756612253238,-7.742,-3.706,-4.812,-0.000391,-0.002363,-0.002439
1765227756637158613,-7.744,-3.717,-4.787,0.000529,-0.005118,-0.006441
1765227756664129284,-7.749,-3.721,-4.777,-0.007988,-0.001859,-0.004882
1765227756688340283,-7.746,-3.71,-4.821,-0.00478,-0.001684,-0.004116
1765227756713410575,-7.756,-3.697,-4.834,-0.007471,-0.006337,-0.00431
1765227756738891784,-7.854,-3.735,-4.816,-0.01298,-0.00533,-0.015982
1765227756763296658,-7.736,-3.733,-4.827,-0.013386,-0.005999,-0.00551
1765227756788451492,-7.71,-3.743,-4.818,-0.005684,-0.002881,-0.002664
1765227756813472868,-7.681,-3.756,-4.883,-0.007457,-0.003761,-0.003813
1765227756838000034,-7.704,-3.728,-4.837,-0.004938,-0.001304,-0.005045
1765227756863160034,-7.72,-3.714,-4.886,-0.003455,-0.002323,-0.000195
1765227756887732826,-7.677,-3.757,-4.857,-0.000233,0.001492,0.002105
1765227756913294285,-7.703,-3.746,-4.869,0.001373,0.000531,0.00197
1765227756938293577,-7.713,-3.702,-4.83,0.000735,-0.000923,0.000652
1765227756963646953,-7.717,-3.725,-4.788,0.003954,-0.000211,0.001788
1765227756988133911,-7.736,-3.747,-4.791,0.002627,0.002511,0.005422
1765227757012637910,-7.73,-3.732,-4.847,0.001066,0.000929,0.002183
1765227757038147578,-7.749,-3.689,-4.835,-0.002848,-0.002592,-0.00129
1765227757062637619,-7.773,-3.686,-4.832,-0.003068,-0.002236,-0.003104
1765227757087596911,-7.731,-3.713,-4.804,0.001752,0.002261,0.001827
1765227757112526203,-7.764,-3.691,-4.826,-0.000723,-0.001253,-0.000487
1765227757137927329,-7.724,-3.712,-4.839,-0.001095,-0.002927,-0.003867
1765227757162986038,-7.732,-3.74,-4.814,0.00034,-0.000111,-0.003397
1765227757187462746,-7.706,-3.747,-4.819,-0.000217,0.001237,0.002667
1765227757213038747,-7.719,-3.725,-4.794,0.00159,2e-06,0.003115
1765227757237491330,-7.729,-3.733,-4.835,-0.000363,-0.001572,0.000194
1765227757262555497,-7.712,-3.73,-4.834,-0.000818,-0.001338,-0.002584
1765227757287582164,-7.755,-3.742,-4.832,0.000747,-0.00023,0.001664
1765227757312986165,-7.71,-3.702,-4.823,0.003007,0.000604,0.00153
1765227757338316624,-7.723,-3.721,-4.814,0.001696,-0.00108,0.00273
1765227757362783832,-7.752,-3.748,-4.807,0.000813,-0.001266,-0.000155
1765227757387472873,-7.71,-3.733,-4.84,0.001282,-0.000779,0.000928
1765227757414017084,-7.724,-3.69,-4.814,0.003841,3.9e-05,0.002024
1765227757437410665,-7.738,-3.712,-4.833,0.001256,2e-05,0.000676
1765227757464000210,-7.738,-3.706,-4.817,-0.000846,-0.001067,-0.000187
1765227757488334584,-7.729,-3.731,-4.79,0.000874,-0.001152,-0.000867
1765227757513334126,-7.729,-3.722,-4.815,0.00099,0.002423,-5.5e-05
1765227757538627835,-7.732,-3.708,-4.832,-0.001448,-0.001406,0.000223
1765227757563236627,-7.705,-3.754,-4.84,-0.002769,-0.001701,-0.002368
1765227757588858045,-7.681,-3.759,-4.81,-0.001354,-0.003446,-0.00373
1765227757612911085,-7.69,-3.762,-4.828,0.002605,-0.002551,0.002213
1765227757638315961,-7.718,-3.732,-4.819,0.000958,-0.001246,0.001048
1765227757662956961,-7.741,-3.761,-4.789,-0.001456,-0.001895,-0.000872
1765227757687934170,-7.715,-3.715,-4.813,-0.001919,-0.000272,0.000263
1765227757712834045,-7.715,-3.739,-4.868,0.001073,-0.001199,0.001758
1765227757737688378,-7.72,-3.743,-4.85,-5.1e-05,-0.001632,-0.00265
1765227757762684045,-7.708,-3.755,-4.879,-0.009047,-0.004509,-0.004896
1765227757787994296,-7.77,-3.839,-4.778,-0.004078,-0.000813,-0.000385
1765227757812931130,-7.64,-3.766,-4.706,0.004276,-0.000625,0.007563
1765227757838006213,-7.712,-3.82,-4.865,0.003438,0.002509,0.00623
1765227757862533963,-7.689,-3.736,-4.846,0.005655,0.000731,0.0032
1765227757887939797,-7.678,-3.76,-4.823,-0.002557,-0.002229,0.002211
1765227757912606172,-7.723,-3.775,-4.827,-0.001268,0.000269,-4.5e-05
1765227757937903548,-7.612,-3.835,-4.9,0.005241,0.001369,0.007766
1765227757963373507,-7.629,-3.837,-4.943,0.00625,-0.001263,0.003304
1765227757987686131,-7.623,-3.828,-4.914,0.010727,0.000192,0.007325
1765227758012956716,-7.611,-3.888,-4.924,0.017109,0.005249,0.013645
1765227758037426340,-7.591,-3.916,-4.941,0.022208,0.006261,0.016302
1765227758062452715,-7.454,-3.971,-4.931,0.016726,0.002789,0.008087
1765227758087386049,-7.417,-4.174,-4.994,0.021476,0.0088,-0.000684
1765227758113102134,-6.984,-4.536,-4.268,0.055563,0.006032,0.01809
1765227758137162841,-7.092,-4.319,-4.972,0.028428,0.012754,-0.020354
1765227758162511050,-6.851,-4.661,-4.803,-0.006582,-0.001987,-0.0211
1765227758187985968,-6.755,-4.179,-5.371,0.002344,-0.04678,0.00999
1765227758213166302,-8.736,-4.46,-3.033,0.093321,-0.046521,0.092152
1765227758237573218,-7.337,-3.595,-5.909,0.014356,-0.038541,-0.050582
1765227758263452762,-6.4,-3.824,-4.618,-0.017679,-0.110865,-0.073225
1765227758287990345,-6.526,-3.191,-5.136,-0.142065,-0.060645,-0.151968
1765227758313349179,-7.474,-3.882,-4.915,-0.001002,-0.044015,0.020325
1765227758338000095,-7.044,-5.19,-4.865,-0.033422,0.053061,0.037494
1765227758362890595,-6.974,-4.179,-6.506,0.056491,0.025152,-0.022718
1765227758387737554,-7.406,-3.38,-4.036,-0.113122,0.075458,-0.086117
1765227758412640387,-7.263,-4.342,-3.747,-0.230083,0.027669,-0.026093
1765227758437624429,-9.512,-4.85,-1.734,0.104304,0.145441,0.270817
1765227758462482179,-7.524,-5.414,-4.898,-0.225976,0.028939,-0.118913
1765227758487476971,-6.107,-3.365,-6.838,-0.053039,-0.295813,-0.109471
1765227758512480055,-6.557,-4.486,-2.81,0.085935,-0.278185,0.05644
1765227758537560514,-8.256,-5.779,-6.003,0.010057,-0.11904,0.244848
1765227758562543764,-6.271,-5.828,-3.483,-0.00072,-0.03478,-0.126955
1765227758587555515,-8.433,-3.265,-2.18,-0.413037,0.083726,-0.220089
1765227758612484307,-7.892,-2.893,-3.048,-0.244921,-0.07198,0.122162
1765227758637519557,-8.996,-4.223,-3.775,0.376161,0.330566,0.284751
1765227758662574641,-5.624,-1.331,-3.794,0.011931,0.019876,-0.099626
1765227758688219642,-5.47,-6.703,-2.728,-0.470761,0.224366,-0.193524
1765227758713057267,-4.551,-4.088,-6.04,0.071209,-0.169589,0.007683
1765227758737955601,-6.471,2.276,-3.592,0.070919,-0.281116,0.021954
1765227758763122268,-6.474,-0.848,-2.49,-0.133808,0.105995,-0.534221
1765227758787617934,-3.255,-2.079,-4.519,0.857373,-0.139038,0.065619
1765227758812427101,-16.609,4.439,-15.369,-0.449609,-0.137395,-0.072586
1765227758837366268,-11.593,-8.373,-0.561,0.284199,0.435946,0.355749
1765227758862291977,-8.447,-7.123,-2.605,-0.075961,-0.203904,-0.178138
1765227758887189977,-10.307,-9.351,-5.78,0.305276,0.44675,-0.03245
1765227758913074479,-4.438,-3.595,-9.719,0.129843,2.9e-05,-0.152551
1765227758937150394,-12.659,-1.819,-9.757,-0.41262,-0.284057,0.202011
1765227758962993479,-9.461,-3.571,-6.802,-0.192142,0.318872,-0.187344
1765227758988576897,-9.685,-1.67,-2.888,-0.428181,0.11869,-0.51103
1765227759013005230,-11.887,-10.96,1.346,0.095854,0.508791,-0.14477
1765227759037549646,-5.467,-2.653,-6.177,-0.001867,-0.078543,-0.288613
1765227759063490190,-5.224,-8.605,0.298,-0.152665,0.291577,0.34048
1765227759087073146,-5.371,-4.272,-6.275,-0.615536,0.056224,-0.365489
1765227759113324357,-7.899,-2.825,-6.315,0.243782,-0.179223,-0.069029
1765227759137981648,-7.049,-3.961,-2.521,-0.264686,-0.314878,-0.250385
1765227759163195566,-7.243,-4.004,-6.304,-0.417819,0.247343,-0.759218
1765227759188268608,-11.695,-3.696,-2.399,0.376921,0.076881,0.339564
1765227759213217608,-13.243,-2.947,-5.595,0.585156,0.368058,-0.019426
1765227759238432151,-4.049,-2.756,0.373,0.172133,0.216151,0.005726
1765227759263111609,0.019,-1.658,-1.061,0.186146,0.555969,-0.088717
1765227759288495735,-15.506,-9.324,-1.586,0.298037,0.523892,0.555522
1765227759313509527,-5.946,-8.65,-0.631,0.175977,-0.078409,-0.241516
1765227759338237652,-6.972,-4.241,-4.46,-0.132939,0.033517,-0.550551
1765227759363685611,-9.611,-13.384,5.713,-0.003579,0.535995,-0.265465
1765227759387986777,-3.486,-0.262,1.575,1.631475,0.52424,-0.744714
1765227759413167028,-3.374,-2.236,-5.613,0.45267,-0.175163,0.431863
1765227759437993028,-5.158,3.084,-4.496,-0.160484,-0.472267,0.217853
1765227759462953778,-7.515,-5.828,-3.993,0.001087,-0.09951,-0.106859
1765227759487504028,-2.361,-12.026,0.112,0.079241,-0.095515,-0.145893
1765227759512337070,-13.558,-6.441,-9.19,-0.274736,1.480973,-0.559873
1765227759537345820,-0.096,2.166,2.871,2.772891,-0.109153,0.650447
1765227759562353487,-2.029,-4.005,5.411,-0.091684,-0.210493,0.301147
1765227759587270821,-9.136,-1.632,0.323,0.376782,0.244515,-0.140937
1765227759612321946,-4.728,0.083,-5.903,0.807198,0.458256,-0.484627
1765227759637270988,-7.597,0.097,-1.402,0.731416,-0.514629,0.39667
1765227759663318324,-2.621,-2.263,-1.55,-0.026789,-0.227723,-0.087484
1765227759688203241,-5.787,3.869,-1.265,0.855542,0.070017,0.080602
1765227759713171574,-9.214,-4.419,-7.372,-0.123528,-0.171774,-0.076284
1765227759737918158,-5.458,-2.302,-1.2,-0.623335,-0.235589,-0.302173
1765227759763464201,-0.103,-4.549,-3.512,0.3296,0.23836,0.026966
1765227759787509241,-4.348,-3.41,-4.589,-0.178539,-0.117186,-0.196318
1765227759813583327,4.107,8.956,1.224,0.893649,-0.420439,-0.168023
1765227759837863951,-4.215,-9.885,-10.505,-0.004372,1.02846,0.151331
1765227759864715371,-6.22,-8.16,-6.514,1.199805,-0.327353,-0.503039
1765227759888332119,-9.634,-5.254,-17.176,0.613284,-0.402213,0.653317
1765227759913945537,-10.081,-1.709,-6.025,-1.011988,-0.256523,0.185001
1765227759938422578,-17.443,-4.583,-25.96,-0.614318,-0.175287,1.232136
1765227759963368120,-8.304,-4.42,-4.977,-1.586617,-0.295188,0.874211
1765227759988226870,-16.357,-4.649,-15.509,-0.992729,-0.036222,0.05329
1765227760013163162,-15.425,-8.992,-6.53,0.018386,0.202184,0.49678
1765227760038292413,-3.183,-0.268,0.637,1.538084,0.344943,0.303732
1765227760063360038,-5.067,1.361,-4.169,0.314963,0.379408,-0.640506
1765227760087699163,-13.898,2.079,-9.71,-1.839042,0.207816,-0.216014
1765227760112724205,-13.182,-4.998,0.93,-1.712625,0.567825,-0.411297
1765227760138061581,-8.312,-11.247,-1.65,0.9545,0.498736,0.605426
1765227760162930664,-7.537,-13.654,-2.254,0.051899,-0.062048,0.481381
1765227760188005457,-1.851,3.812,-2.091,1.735865,-0.235232,-0.400901
1765227760213051915,-11.87,-9.09,-1.01,-0.118847,0.724483,0.180686
1765227760238041416,-7.958,-3.45,-10.478,1.894679,0.006352,-0.304426
1765227760263029416,-9.104,-6.258,-14.943,0.494993,-0.13437,0.847974
1765227760287668958,-4.326,-4.986,-9.6,-0.325629,-0.394374,0.379288
1765227760312971417,-5.999,-4.361,-1.674,-1.235089,-0.332096,0.167378
1765227760338145209,-12.702,-4.446,-0.647,0.533461,0.631316,-0.074282
1765227760363269335,-4.834,-3.896,-0.534,1.087361,-0.14415,-0.568846
1765227760388208127,-5.042,-15.618,-10.542,0.187341,0.806824,1.173298
1765227760412598668,-5.291,-3.535,-2.674,-0.081954,-1.008267,-0.75875
1765227760437616460,-15.434,-2.525,-11.12,-0.250838,0.609292,-0.194834
1765227760462289335,-5.325,-1.506,-5.102,-0.305713,-0.139619,0.473975
1765227760487485461,-3.462,1.766,4.309,2.917191,0.562743,-0.636755
1765227760512660295,-19.385,-7.278,-3.697,-1.746347,0.308915,-0.110165
1765227760537466712,-1.963,2.495,-0.854,0.739162,-1.082823,0.11095
1765227760563930256,-13.486,-10.604,-5.271,0.001446,0.025356,-0.188913
1765227760587327837,-8.688,-6.172,-0.051,0.256992,-0.318838,-0.126024
1765227760613161214,-11.66,-7.57,-14.657,-0.750341,0.240978,0.366308
1765227760638045256,-9.641,5.548,-5.458,-0.277607,-0.106345,-0.23242
1765227760663541174,-9.792,-7.179,-5.501,-0.934583,-0.008897,-0.29953
1765227760688135298,-13.924,-4.972,-6.765,-1.21822,0.127607,0.1577
1765227760713142799,-16.945,-6.889,-11.976,-0.556883,0.116836,0.222781
1765227760737975924,-5.108,-6.501,-4.069,-0.007974,0.189621,-0.389484
1765227760762791216,-14.055,-0.014,-20.451,0.190004,-0.244985,0.605445
1765227760788161842,-10.063,-5.99,-12.89,-0.995021,-0.01539,-0.427589
1765227760813215926,-24.533,1.269,-18.369,0.39077,0.702931,-0.292167
1765227760837644258,-6.788,-1.47,-3.077,0.656404,-0.047945,0.071344
1765227760863273218,-0.755,-2.523,6.266,0.074095,-1.061101,-0.805325
1765227760888139385,-9.939,-3.442,-13.198,-0.173166,0.012921,0.717744
1765227760913493386,-5.762,-1.171,-6.569,0.598159,-0.232827,0.373569
1765227760937997802,-3.159,-4.196,1.618,0.634765,0.064907,-0.586545
1765227760963440554,-6.715,-2.165,-18.033,-0.493151,-0.147162,0.610787
1765227760988467512,-8.307,-6.193,-24.136,0.04311,0.407146,0.743762
1765227761013255054,-23.543,-9.738,-7.739,-1.800689,0.17098,-0.212985
1765227761038386346,-4.552,-0.274,-14.891,2.376058,-0.102098,-0.286774
1765227761062986805,-24.236,-3.063,-7.751,-2.779291,-0.218378,0.13105
1765227761087943347,-4.091,-3.652,-4.741,-0.198135,-0.39935,-0.063554
1765227761112592971,-13.479,-3.551,-0.521,-0.630939,0.752024,0.343175
1765227761137637930,-3.418,-0.49,-1.899,-0.190202,-0.589063,-0.906705
1765227761162889723,-13.742,1.859,-7.255,-3.443633,-0.936183,0.487647
1765227761187845307,-13.235,-6.55,-8.988,-2.274673,0.044616,-0.126786
1765227761212581682,-11.155,-2.93,5.791,-0.662824,0.024041,-0.046186
1765227761237294140,-16.871,3.627,-10.127,2.02576,1.25752,-0.045724
1765227761263614392,-3.104,-2.899,-4.967,-0.332668,-0.251929,-0.252223
1765227761287572308,-15.922,-8.066,-10.596,0.560689,0.44868,-0.242811
1765227761313432476,-2.34,-12.195,3.975,-0.012563,-0.463654,0.425023
1765227761338352060,-22.592,3.416,-21.683,1.759073,0.479857,-0.208996
1765227761363178144,-5.661,-3.321,-4.391,0.976309,-1.037767,0.597528
1765227761388302728,-12.276,-4.57,-7.2,0.067528,-0.159584,0.296906
1765227761413233895,-7.864,-2.97,-9.252,-0.444279,-0.926114,-0.156751
1765227761438189103,-1.752,-0.469,3.686,1.828109,0.140445,0.063447
1765227761463224020,-3.757,-2.251,-7.952,0.375909,-0.240314,0.207677
1765227761488194729,-4.598,1.69,-2.466,-0.247046,0.194938,0.045826
1765227761513277521,-7.144,-6.53,-7.864,-0.530761,0.339041,-0.592472
1765227761538376439,-18.285,-14.933,-4.203,-0.93419,0.542538,-0.311341
1765227761563274856,-13.877,2.804,-12.476,-0.803324,-0.448232,-0.066859
1765227761588230064,-19.199,-2.436,-12.087,0.817035,0.259545,0.148988
1765227761613184065,-0.829,1.796,-8.365,0.051315,-0.541796,-0.50145
1765227761638197273,-14.995,-3.605,-7.688,-0.598549,1.06631,0.154941
1765227761662690481,-2.743,-1.807,-3.301,-0.739179,-0.646462,-0.52937
1765227761688497400,-18.36,-10.391,-20.017,-0.818245,0.195067,0.209987
1765227761713337317,-25.947,2.16,-3.485,-3.13606,-1.311899,0.925192
1765227761738483401,-1.239,6.661,-5.497,-0.577463,-0.285831,-0.352099
1765227761763198567,-5.923,-8.885,-16.212,-0.69655,0.179776,-0.48409
1765227761788018068,-4.896,-10.051,1.685,-0.462672,0.110597,-0.533893
1765227761813156443,-17.465,-1.976,-14.179,0.993931,0.155679,0.757757
1765227761837582193,-6.271,-4.465,-1.087,-1.609025,-0.189978,-0.362612
1765227761863102652,-22.547,-3.183,-30.153,-1.260371,-0.218563,1.794304
1765227761887691277,-23.991,-8.323,-13.045,-0.629224,0.306374,-0.073637
1765227761913192403,-11.667,5.37,-6.044,0.587433,0.271453,0.178482
1765227761937589319,-0.003,-5.046,-1.055,-1.495122,-0.69035,-0.544428
1765227761962434861,-1.218,-10.878,-4.344,-0.747879,-0.273849,0.084089
1765227761987570654,1.772,3.752,-1.393,0.963667,-0.777834,-0.707375
1765227762013499531,-9.996,-10.47,-8.945,1.452404,0.985268,-0.503598
1765227762037524863,-5.678,-15.24,5.286,0.914277,0.318892,-0.240229
1765227762063501823,-8.03,-2.474,4.485,1.750069,0.235551,-0.783843
1765227762087365780,-12.328,-0.062,-8.44,1.590337,0.560904,-0.176996
1765227762113698075,-0.602,-6.05,4.843,-2.692899,-0.76565,-0.212289
1765227762138433866,-6.85,-3.427,1.294,0.955149,0.0353,-0.351929
1765227762163710826,-4.947,-3.02,5.53,1.335304,0.360197,0.451265
1765227762188404784,-14.519,-2.411,-8.907,0.287654,0.871902,-0.396896
1765227762213287742,-6.054,-9.145,2.626,-0.219975,0.376151,-0.081501
1765227762238267618,-19.772,-5.51,-5.446,-1.201737,-0.215466,0.447273
1765227762263212368,-8.235,-4.928,-13.198,-0.632597,-0.166881,1.003672
1765227762288202244,-7.339,-1.738,-6.743,-0.207694,-0.014857,-0.068031
1765227762313903745,-13.883,5.269,-0.984,-1.567994,-0.192491,-0.201509
1765227762337999869,-14.811,-2.258,-9.205,-0.842091,0.355358,-0.292685
1765227762362687036,2.177,-5.69,-9.838,0.206301,-0.345954,0.928624
1765227762388098079,-1.15,3.157,-3.56,-0.045494,-0.228204,-0.696497
1765227762415376125,-7.42,-4.312,0.601,-0.305653,-0.030677,0.139507
1765227762437623704,-15.767,-3.365,-1.038,-1.15077,0.682708,-0.223219
1765227762462600704,-6.123,-3.17,-0.019,-0.988507,-0.474867,-0.608058
1765227762488063164,-10.047,0.712,-7.537,-0.407797,-0.1416,0.54027
1765227762512457288,-6.471,3.401,-3.831,-0.826344,0.189029,0.112899
1765227762537369080,-12.327,-0.189,1.645,-0.783089,0.123408,-0.151699
1765227762562432331,-7.842,-8.311,-2.78,0.674088,0.420025,-0.347882
1765227762587578915,-7.852,-6.829,1.502,0.000254,0.172677,-0.080298
1765227762612614624,-11.531,-6.564,-2.876,1.080516,0.542599,0.240763
1765227762637950417,-8.658,-12.861,-3.112,-1.153239,0.158842,0.821249
1765227762662904584,-15.294,-3.033,-11.046,0.46892,0.050814,-0.19355
1765227762687898084,-9.204,-6.624,-9.334,0.639172,-0.17453,0.28419
1765227762712718709,-13.678,-10.312,-7.853,-0.266781,0.062442,0.770759
1765227762738317669,-8.633,-6.648,-8.307,0.001131,-0.052674,0.346539
1765227762763578253,-10.289,-6.829,-6.464,-0.505508,-0.185436,0.430457
1765227762788033461,-2.202,-3.03,-7.546,0.96813,0.15667,-0.096523
1765227762813332962,-14.521,-4.636,-5.483,-0.141421,0.27262,-0.28417
1765227762838693338,-9.739,2.714,-3.57,-1.045201,-0.18451,-0.237323
1765227762863461588,-18.346,-12.895,5.199,0.6442,1.326065,-0.26469
1765227762887507171,-10.511,-14.547,-6.73,1.112071,0.430916,0.268925
1765227762913479923,-9.084,-0.725,-13.04,-0.325858,-0.227799,0.211916
1765227762938586757,-11.327,0.116,-15.038,-0.768345,-0.700115,0.525115
1765227762963603382,-3.51,-12.431,-1.897,-0.637327,-0.014008,0.101511
1765227762988289507,-14.549,-0.23,-5.029,-0.458083,0.116647,0.242249
1765227763013827175,-5.693,-2.504,-12.202,0.008736,-0.007205,0.469811
1765227763038431758,-2.146,2.552,0.988,0.091591,-0.296048,-0.205553
1765227763063341092,-8.453,-2.381,0.171,-0.867481,-0.55499,-0.197962
1765227763087883008,-2.638,0.976,2.841,0.491827,0.620205,0.282025
1765227763112879592,-15.269,-5.387,-7.809,-0.829006,-0.487343,0.468528
1765227763138130302,-2.656,2.573,0.936,-1.316403,-0.91584,-0.468102
1765227763163184427,-9.054,-0.471,-8.902,-0.873108,-0.351907,0.273512
1765227763188088594,-2.994,-3.688,2.456,-1.376805,-0.491471,0.058198
1765227763213172636,-11.71,-5.941,-2.149,0.843882,0.198185,-0.232871
1765227763238270554,0.454,-4.779,2.892,0.298397,-0.299951,-0.320142
1765227763262718137,-8.772,-6.544,-3.47,0.06839,0.151418,0.390467
1765227763288046429,1.939,1.961,0.296,1.372449,-0.052904,0.421748
1765227763313482264,-2.365,-0.696,-6.335,-0.394546,0.188229,-0.064233
1765227763337854888,-6.751,2.069,-0.099,0.511032,0.56467,-0.591562
1765227763363014931,-4.955,-8.354,3.177,-1.159544,-0.125535,-0.285328
1765227763387661514,-6.877,-14.168,-17.256,1.86446,-0.318301,0.855941
1765227763412728098,-8.064,-9.329,-7.374,1.479733,0.18151,0.229632
1765227763437689890,-8.202,-3.691,-11.019,0.623163,0.065132,0.044241
1765227763462366848,-7.01,-9.726,-16.013,0.270654,0.582032,-0.311987
1765227763487650558,-15.887,-6.994,-0.911,0.11901,0.63823,0.119616
1765227763512325016,-17.11,-2.671,-14.855,-0.673031,0.098009,0.30992
1765227763537701392,-3.116,-5.421,2.118,-0.633138,-0.004487,-0.065674
1765227763562686101,-10.095,-11.041,-0.956,0.598491,0.3163,-0.33834
1765227763587669935,-1.275,-3.503,2.894,0.021713,-0.319724,-0.17315
1765227763613518437,-8.599,-6.539,-14.162,-0.729858,0.231414,0.351758
1765227763638384395,-8.652,-2.573,-4.052,0.065441,-0.108505,-0.113791
1765227763663472063,-12.631,-2.656,-3.854,-0.823741,0.114037,-0.386798
1765227763688323896,-4.438,-4.2,0.967,-1.157739,-0.312588,-0.221686
1765227763713065271,-27.259,-4.993,-15.442,-1.701221,0.745738,0.162095
1765227763738035105,-2.336,-5.463,-1.895,0.164393,-0.221257,0.285566
1765227763762903855,-4.3,-1.286,3.679,-0.367946,-0.627288,-0.461756
1765227763787887148,-14.787,-4.678,-6.275,-0.274611,0.218819,0.444506
1765227763813344191,-10.836,-6.342,-10.423,-0.278252,0.594707,-0.06087
1765227763838935275,-8.732,-5.388,2.583,-0.032462,-0.17769,-0.228643
1765227763863204525,-17.374,-5.887,-11.159,-0.626385,0.265991,0.286825
1765227763888007816,1.949,-3.901,-8.196,0.848128,-0.45332,0.513913
1765227763913268234,0.431,4.864,1.51,-2.040334,-0.181751,0.47736
1765227763937977192,2.127,3.694,-0.532,0.440912,0.063613,0.21435
1765227763963304860,-9.314,-9.614,-1.098,-1.676574,0.46276,-0.561803
1765227763988734153,-10.02,-9.472,3.384,-1.653995,0.413455,-0.261867
1765227764013057027,-26.377,-5.597,-5.35,-1.647994,0.275124,-0.211645
1765227764038504404,-9.697,-6.835,-8.608,0.703067,0.460699,0.033635
1765227764062820861,-25.126,-7.963,-18.617,-0.588503,-0.058436,0.222484
1765227764088594405,-8.589,-5.364,-9.279,0.268501,0.316688,-0.118459
1765227764113052071,-17.423,2.714,-21.336,-0.66358,0.06363,1.836226
1765227764137664863,-7.656,-9.801,0.402,-0.760133,0.631808,-1.403225
1765227764162847322,-5.73,-12.333,-1.802,0.754927,0.158558,0.513532
1765227764187326947,-7.179,-11.673,-1.186,-0.34432,0.077394,-0.569825
1765227764212624031,-2.479,-4.16,2.827,1.08098,-0.413753,0.465442
1765227764237658407,-8.437,-3.19,-12.341,0.059116,0.034043,0.156696
1765227764262214448,-9.068,-11.639,0.381,-1.110396,0.13055,-0.460524
1765227764287095073,-1.27,3.935,4.02,0.792818,-0.316427,-0.086196
1765227764312103616,-2.048,-6.861,8.098,-0.044528,-0.374788,-0.351274
1765227764338536952,-16.766,-11.002,2.021,-0.346988,0.825464,0.198679
1765227764363133202,-5.776,-5.335,2.577,-0.07133,-0.166077,-0.509316
1765227764387104325,-12.042,-1.239,-15.225,-0.224942,-0.046272,0.127051
1765227764412941494,-8.584,-8.474,12.556,-0.562559,0.826045,-0.115582
1765227764437002535,-21.37,-13.913,-16.654,-1.448336,0.499652,0.132028
1765227764462931953,-4.889,-0.046,-2.055,0.53193,-0.249396,-0.402912
1765227764488366830,-14.437,0.167,-7.388,-1.441181,0.561408,-0.121498
1765227764513408580,-9.191,-5.294,0.066,-0.539241,0.221452,-0.129215
1765227764538202831,-10.757,2.387,-4.765,-0.515028,0.057507,-0.648465
1765227764563619290,-5.821,-0.768,-5.502,-0.398699,-0.056495,-0.425421
1765227764588422165,-5.814,-1.066,-5.981,0.876647,-0.170386,0.090983
1765227764613550874,-3.89,-0.894,-3.467,0.400184,-0.076543,0.489545
1765227764638839167,-7.657,-2.995,-4.972,0.325377,-0.172034,0.023321
1765227764663488750,-4.902,-1.354,-3.195,-0.122589,-0.269311,-0.005768
1765227764688582209,-14.57,-2.691,-7.558,-0.335465,0.245847,0.056185
1765227764713096251,3.133,-0.346,-4.389,1.37436,-0.176382,0.09374
1765227764738938003,-19.586,-4.383,-8.074,-0.443346,0.635107,-0.166693
1765227764763024585,-10.656,-11.471,7.22,-1.479198,0.837967,-0.445357
1765227764788315378,-14.362,-5.287,-11.07,0.898386,0.477187,-0.003557
1765227764813478087,-4.854,-15.485,-1.15,-0.928934,-0.115962,-0.185193
1765227764838003712,-4.82,-2.317,1.808,0.532191,-0.041654,0.012548
1765227764863368963,-9.814,-6.795,7.78,-0.498926,0.309289,-0.937173
1765227764888046754,-7.339,-1.321,-6.457,0.211033,0.126896,0.246615
1765227764913136880,-2.305,-6.961,-0.275,-0.575925,-0.375151,-0.265484
1765227764938196839,-7.639,-0.54,3.398,0.10352,0.077861,-0.079082
1765227764962827881,1.198,-11.189,-5.527,0.549434,-0.011921,0.486227
1765227764988249507,-5.791,1.404,-13.883,1.186019,0.158334,-0.257529
1765227765013215716,-6.588,-2.056,-5.492,0.067246,-0.047591,0.086374
1765227765037816007,-6.045,-4.957,-1.438,-0.30864,0.48246,-0.175868
1765227765063301800,-3.719,-0.207,1.025,0.69684,-0.013377,-0.748172
1765227765087649050,-9.348,0.511,4.684,-0.521299,0.248968,-0.094624
1765227765114322595,-15.269,0.775,-2.455,-0.366064,-0.324535,-0.001284
1765227765138205802,-9.315,-5.246,-16.285,0.43178,-0.522969,0.307243
1765227765163677970,-5.539,-6.208,-5.29,-0.740496,0.090346,-0.131895
1765227765187994136,-17.229,-7.654,-10.262,-0.092086,0.12366,-0.143635
1765227765213362554,-5.831,-9.43,-7.266,0.505664,0.180372,0.136468
1765227765238506805,-22.552,-7.18,-15.335,-0.928522,0.059457,0.319367
1765227765263674389,-5.429,-2.979,-2.245,-0.545408,-0.366369,0.456044
1765227765288482472,-15.242,0.985,-13.612,-0.983936,-0.112385,0.285703
1765227765313368764,-8.906,-11.436,-0.96,-2.361239,-0.14421,-0.217487
1765227765338502223,-5.287,-5.866,1.015,0.782852,0.009816,0.092013
1765227765363729808,-5.899,0.902,-3.15,0.954282,0.210884,-0.170973
1765227765388380891,-8.868,-5.802,1.831,-0.087994,0.151977,-0.648223
1765227765413105349,-10.238,-9.164,2.361,0.79038,0.204697,0.23353
1765227765438238434,-11.919,-3.961,-8.927,0.24604,0.42004,0.252521
1765227765462792808,-8.96,-6.87,4.36,-0.581264,0.082278,-0.181321
1765227765488736561,-12.5,-8.866,-10.047,0.143737,0.328408,0.162314
1765227765513231102,-8.467,-6.032,-7.833,0.946465,0.165746,-0.134944
1765227765537913685,-9.704,1.973,-5.554,0.188374,-0.035843,-0.126989
1765227765563435812,-13.607,-9.007,-18.048,0.064436,-0.489521,1.125474
1765227765588225104,-9.846,-6.364,-9.514,-0.031591,-0.026514,0.050526
1765227765613304021,-2.122,-1.189,6.995,-0.810266,-0.167035,-0.696219
1765227765638458147,-0.541,-7.995,-1.135,-0.918679,0.119012,-0.357024
1765227765663363689,-23.389,3.311,-21.611,-0.701553,-0.46657,1.512436
1765227765688179939,-2.185,-2.327,3.638,-0.739556,-0.210216,0.388525
1765227765713445982,-3.542,2.076,-2.664,0.998831,0.253379,0.092937
1765227765738337566,-9.009,2.059,-2.89,-0.516486,-0.156838,-0.372807
1765227765762816774,-3.886,-4.107,4.189,-1.042504,-0.253428,-0.751795
1765227765787591274,-13.009,4.194,-4.054,-0.367855,-0.396718,-0.008489
1765227765813057733,-11.754,-1.199,-3.495,-0.990402,-0.235004,-0.324482
1765227765837643567,-10.784,-4.858,-5.194,-0.776588,-0.441146,0.012902
1765227765863364152,-7.533,-6.381,0.535,0.160807,0.106831,0.275325
1765227765887614818,-1.162,2.063,-2.914,0.113148,-0.436691,-0.129862
1765227765913461070,-4.917,0.92,1.43,1.403988,0.140035,-0.908897
1765227765938173986,-11.973,-7.051,-6.706,1.237569,0.335066,0.635573
1765227765963467696,-10.413,-4.449,-10.67,-0.233596,0.137219,0.077697
1765227765988615488,-11.596,-8.596,-5.255,-0.574614,0.239647,-0.610615
1765227766013669239,-0.27,-0.243,-4.885,0.68485,0.089191,0.056314
1765227766038409531,-21.294,-7.433,-11.976,-1.109292,0.151241,0.244542
1765227766064007532,-4.348,0.945,-6.98,0.434831,-0.164022,0.206156
1765227766088095531,-19.247,-13.192,-6.171,-0.927349,0.20531,-0.088056
1765227766113441533,-11.933,-6.233,-1.586,-0.207951,0.203334,0.01793
1765227766138842159,-11.597,-5.807,-2.865,-0.435498,-0.084475,-0.096772
1765227766163344117,-10.927,-7.184,-7.97,-0.843608,0.405343,-0.098344
1765227766188584743,-15.068,-2.293,-10.748,-0.289615,-0.121016,0.240552
1765227766213175784,-12.485,-12.754,-4.614,-0.492669,0.288791,0.574745
1765227766238111077,-7.603,-4.041,-19.076,0.715045,0.14828,-0.129318
1765227766263183869,-5.569,1.73,-11.397,-0.266755,0.053555,0.159027
1765227766287900327,-4.872,-0.816,4.144,-1.440149,-0.311691,0.267601
1765227766313489412,-11.89,-4.325,-3.32,0.140335,0.292433,-0.303598
1765227766337864079,-17.929,-20.407,8.819,-2.899389,1.543951,-0.898819
1765227766362964538,-5.052,-6.807,-7.671,0.512749,-0.00261,0.314622
1765227766387868705,-11.222,-6.372,-6.877,-0.278252,-0.194722,0.015406
1765227766412684997,-0.256,-2.413,-6.055,0.602919,-0.453787,0.21464
1765227766437829289,-12.076,-0.712,0.654,0.408172,0.099007,0.213996
1765227766462467123,-1.91,-2.187,3.138,-0.629283,-0.568686,-0.047328
1765227766487817665,-4.238,-8.286,4.579,-0.635996,-0.530908,-0.175258
1765227766512506665,1.444,1.495,5.482,0.524391,0.198437,-0.159862
1765227766537395249,-11.854,-6.252,-4.191,-0.255338,-0.26386,0.233622
1765227766562537458,-10.646,-7.119,-16.526,-0.48701,0.156982,0.080102
1765227766588132252,-13.217,-1.132,-6.651,-0.180136,0.042192,-0.140554
1765227766613257336,-0.703,-3.082,-1.04,0.010619,-0.539402,0.173491
1765227766637710002,-16.099,-2.872,-10.521,-0.970392,-0.168197,0.118399
1765227766663139753,-0.057,-0.561,-9.887,0.988628,-0.437584,0.122457
1765227766688704047,-20.047,-7.174,-12.354,-0.682216,0.258238,-0.170587
1765227766713600880,-5.324,-12.894,-12.788,0.327634,-0.244649,0.522017
1765227766738466839,-15.803,-10.818,-11.201,-1.063609,0.909221,-0.131041
1765227766763384590,-4.421,-1.089,1.42,-1.086639,-0.233535,-0.244681
1765227766787959381,-26.802,-4.954,-18.743,-0.985822,0.059105,0.18855
1765227766813202674,-11.182,-6.773,-2.647,-0.32358,-0.092656,-0.206473
1765227766838896259,-5.272,-4.534,-9.827,0.391595,-0.301844,0.651723
1765227766863406467,-9.526,-12.563,-7.57,0.245331,-0.08202,0.262275
1765227766888495718,-4.56,-6.654,-3.706,0.300457,-0.283819,0.054619
1765227766912949467,-10.326,3.121,-13.866,0.812161,-0.295783,0.244722
1765227766938295302,-2.839,-3.948,-1.22,-0.667134,-0.080062,-0.453255
1765227766963221136,-13.088,-3.771,-15.576,-0.302033,-0.004336,0.395495
1765227766988104011,-8.239,-4.627,0.491,-0.240994,-0.147029,-0.150324
1765227767013464512,-5.597,3.937,-0.128,0.52246,0.206158,-0.370012
1765227767038021970,-7.51,-2.05,1.426,-0.060003,0.264165,-0.311242
1765227767063274430,-4.261,-2.615,-2.138,0.10069,-0.211598,0.102934
1765227767088166639,0.623,10.49,-1.329,2.469548,-0.171039,0.011757
1765227767112578722,-1.815,-2.62,7.648,-1.172856,-0.276001,-0.358461
1765227767137599347,-6.335,-1.215,-5.132,0.298332,-0.129165,-0.502804
1765227767162489848,-8.873,-1.646,-3.477,-0.079974,0.249803,-0.059249
1765227767187981974,-4.941,-3.833,1.016,-0.068088,0.023232,-0.054957
1765227767212925891,-5.011,3.125,-4.609,1.146879,0.268509,0.2726
1765227767237989267,-4.38,-8.762,-8.262,0.652405,0.020836,-0.27961
1765227767262393475,-3.998,2.17,-1.456,-2.714334,-0.396643,-0.856005
1765227767288129894,-10.706,-2.55,-8.432,-0.22463,-0.214426,0.237621
1765227767312600310,-4.994,-3.575,-9.302,0.84676,-0.198952,0.9824
1765227767338312228,4.055,-4.64,-5.165,0.851333,-0.112007,0.365309
1765227767362472311,-9.131,-8.854,-15.789,0.738791,-0.088496,0.466468
1765227767387968437,-7.156,-0.74,-6.066,0.401604,0.063534,-0.195117
1765227767413230605,-8.64,-9.294,-5.457,0.501236,0.448897,-0.385016
1765227767437069812,-2.239,-13.558,-8.714,0.333659,0.297773,-0.037652
1765227767463392398,-8.072,-6.073,0.216,-0.674017,0.095694,0.179893
1765227767488004857,-13.078,-6.488,-8.297,0.51798,0.195652,0.335616
1765227767513004524,-5.889,-1.127,-8.289,0.866902,-0.070207,0.219368
1765227767538399567,-2.875,-2.644,-5.963,-0.014569,0.034868,-0.312234
1765227767563224734,-4.105,-0.139,-8.466,0.830531,-0.230282,0.144773
1765227767588377026,-0.227,-6.202,-9.105,1.197839,-0.374531,0.410361
1765227767613416527,-8.992,-4.38,-7.398,0.530543,0.20528,-0.101464
1765227767638407486,-12.931,-3.211,-3.488,-0.144311,0.29229,0.05614
1765227767663247361,-2.619,-2.044,2.642,-0.413137,-0.120127,-0.493854
1765227767689472781,-8.849,1.726,1.545,0.139428,-0.171685,0.322953
1765227767713279529,-11.975,-17.478,-18.961,-0.496591,0.010114,0.684457
1765227767738400822,-0.619,0.209,-7.807,1.054347,-0.039737,0.078968
1765227767762698780,-18.213,-6.696,-9.146,-1.730912,0.149242,-0.755101
1765227767788066614,-6.076,-2.308,-7.966,0.70331,-0.313765,0.150751
1765227767812857073,-2.084,0.893,-6.556,0.165053,-0.440472,0.062886
1765227767838083199,-0.432,-0.704,2.899,0.08777,-0.210242,-0.018385
1765227767862715532,0.749,0.888,-0.304,0.376402,-0.622638,0.029849
1765227767888094992,-5.918,-5.947,-3.01,-0.356685,-0.050607,0.020587
1765227767912845617,-6.167,0.979,-5.69,1.460646,-0.078353,-0.321827
1765227767937845451,-10.165,-1.624,-8.729,-0.605522,-0.481258,0.451644
1765227767962959368,-12.927,-4.108,-4.229,-0.815143,0.129113,0.031177
1765227767988296953,-4.189,-2.573,-2.687,0.672137,-0.184307,0.110525
1765227768012516952,-11.217,0.316,4.012,-0.072381,0.17204,-0.22867
1765227768038163162,-7.375,-5.9,-1.838,-0.042645,-0.06312,-0.019941
1765227768062560620,-7.492,-3.345,-6.618,0.235974,-0.10918,0.139785
1765227768087578996,-7.998,0.99,-9.176,0.253084,-0.205369,0.381908
1765227768112833872,-8.517,-5.937,-5.271,-0.283863,-0.163136,0.031193
1765227768137912914,-3.318,-2.085,-3.029,0.151997,0.027258,-0.32386
1765227768162614831,-12.015,-1.939,-3.567,-0.605072,-0.047537,-0.123003
1765227768188137624,-7.389,-9.908,-2.02,-0.225738,0.127165,-0.146448
1765227768213318750,-3.161,0.436,-8.4,0.103049,-0.161386,-0.06036
1765227768238127167,-4.856,-1.747,-0.397,0.652741,-0.215228,-0.089216
1765227768263248502,-6.946,-6.094,-4.385,0.143687,0.135653,0.031095
1765227768288936045,-4.577,-6.072,-0.196,-0.820118,-0.102464,-0.185495
1765227768313243211,-3.59,-1.346,-0.482,0.540607,-0.000358,-0.289992
1765227768338517421,-8.503,-11.577,-12.844,-0.113249,0.144816,-0.179338
1765227768363439671,-10.658,-2.903,-7.043,0.392785,0.098632,0.082749
1765227768388019796,-6.413,-6.498,-6.166,0.624633,-0.164453,0.349802
1765227768413328131,-7.437,0.332,-8.848,0.352862,-0.34529,0.214996
1765227768438358923,-6.874,-4.968,-2.288,0.078162,0.12128,-0.031639
1765227768463334340,-10.618,-4.372,-8.531,0.201589,-0.089317,0.203855
1765227768488851092,-12.683,-12.797,-10.552,-0.772787,0.17337,0.288146
1765227768512794757,-15.372,-0.066,-10.581,-0.149682,0.044526,0.413477
1765227768538086925,-3.939,-4.305,-7.404,0.24512,0.122452,-0.079556
1765227768562626133,-4.894,-2.063,-6.16,0.714161,-0.415946,0.001358
1765227768588022510,-6.779,-13.537,1.258,0.036238,0.496681,0.0167
1765227768612561343,-9.313,0.954,-4.751,-0.454987,-0.11977,-0.250843
1765227768637960844,-9.89,-4.172,-8.953,0.402213,0.356566,0.059238
1765227768662979553,-5.632,2.763,0.602,0.272371,0.069009,0.111956
1765227768687455178,-6.508,0.27,1.995,-0.158373,0.205004,-0.147191
1765227768712710512,-3.953,-3.755,6.879,0.331624,-0.33883,0.308092
1765227768738231931,-9.787,-3.196,-5.942,-0.512146,-0.135078,-0.010156
1765227768762336805,-16.339,-9.008,-21.342,-0.288074,-0.121347,0.513436
1765227768787346180,-19.077,-6.547,-9.83,0.192681,0.182467,0.812595
1765227768812722557,-23.639,-9.002,-15.018,-1.056934,-0.029653,0.559516
1765227768837348515,-16.655,-8.46,-11.732,-1.144701,0.404351,0.26253
1765227768862627099,-7.012,-1.286,10.439,-2.004305,0.347332,-0.39412
1765227768887113933,-4.133,-0.258,-0.343,0.406596,-0.040143,-0.21816
1765227768912961018,-2.354,-3.147,-0.61,-0.015436,-0.15474,0.074588
1765227768937150392,-12.172,-0.794,-2.679,0.17283,0.21773,-0.032731
1765227768962947103,-12.842,-5.563,-7.419,-0.166991,-0.147191,0.354761
1765227768987116768,-2.557,-6.91,-10.178,0.660717,-0.206179,0.316339
1765227769012952771,-10.78,-2.865,-4.109,0.315878,0.100328,0.055302
1765227769038480855,-5.996,-3.525,-0.865,-0.107667,0.324064,-0.242004
1765227769062961480,-4.673,-5.292,-0.287,-0.047597,0.047074,-0.20416
1765227769088305648,-10.597,-3.474,-5.167,0.178832,0.019701,0.315191
1765227769113315607,-7.358,-4.111,-6.819,0.114993,-0.022857,0.257602
1765227769137900774,-3.753,-3.076,-3.042,0.237475,-0.149462,-0.1521
1765227769163437109,-5.029,-9.32,-0.677,-0.064797,0.135529,-0.359746
1765227769187911067,-9.965,2.075,-7.204,0.919618,-0.030461,0.444603
1765227769213067234,-2.012,-5.068,3.388,0.184877,-0.223729,-0.077854
1765227769238339652,-2.135,-8.264,0.391,-0.640373,0.115989,-0.109835
1765227769262731527,-9.955,-8.894,-12.456,0.176433,0.123606,-0.053593
1765227769288060611,-12.033,-3.084,-6.485,0.548565,0.160751,0.158298
1765227769313194404,-5.515,-6.634,-1.457,-0.011053,-0.021057,0.13513
1765227769338534864,-12.378,-5.186,-3.697,0.003469,0.241329,-0.006357
1765227769363266697,-9.285,-5.077,-7.22,0.211283,-0.017733,-0.058472
1765227769387994822,-9.879,-4.942,-8.417,0.479398,0.171507,0.238192
1765227769413127157,-13.567,2.951,0.366,-0.897704,0.280671,-0.423651
1765227769437673490,-9.53,-7.586,-5.467,0.352936,0.2604,-0.105485
1765227769462972824,-6.24,-6.662,-8.515,-0.369209,-0.035668,0.009527
1765227769487963533,-8.712,-3.35,-5.839,0.452482,0.084446,-0.030227
1765227769512551117,-4.125,-6.381,-1.814,0.134337,0.112711,0.098255
1765227769538409286,-4.202,-3.766,-1.528,-0.117101,0.06446,-0.157559
1765227769562610785,-9.027,-9.188,-11.157,0.109487,-0.1315,0.644788
1765227769587706494,-12.973,-7.124,-8.585,-0.016922,0.110071,0.210355
1765227769613368079,-11.01,-5.988,-5.542,-0.502247,0.150745,-0.156885
1765227769637589245,-13.193,-5.461,-6.997,0.420587,0.321502,0.075797
1765227769663834748,-10.032,-4.376,-3.676,-0.589828,0.114556,-0.080776
1765227769687601830,-18.588,-0.747,-11.916,0.427401,0.175223,0.18684
1765227769713615957,-8.15,-4.079,2.525,-0.826584,0.340555,-0.277868
1765227769738251666,-9.633,-6.791,-8.867,0.168513,0.049729,-0.056594
1765227769763087874,-6.681,-5.72,-2.792,0.333238,-0.155008,0.279772
1765227769787995625,-12.567,-4.874,-10.782,0.186176,-0.059217,0.267878
1765227769813227876,-8.798,-6.949,-10.613,-0.022137,-0.074045,0.340022
1765227769838210835,-16.721,0.929,-13.399,-0.411967,-0.173277,0.312326
1765227769863421003,-0.881,-2.936,-8.314,0.400661,-0.11902,0.15082
1765227769888185795,-4.634,-4.401,0.018,-0.104203,-0.119153,-0.078341
1765227769913544088,-4.27,-4.595,-6.152,0.115483,0.055773,-0.324465
1765227769938322713,-15.428,-4.697,-2.161,-1.669064,0.479719,-0.422884
1765227769963143797,-12.801,-4.569,-3.312,0.046273,0.277652,-0.07328
1765227769987918547,-8.539,-6.045,-0.36,-0.403185,0.100759,0.06249
1765227770012939923,-3.432,-0.316,-2.111,-0.006473,-0.304804,0.110426
1765227770038085674,-7.162,-3.108,-1.627,0.20274,0.178056,0.148723
1765227770063413092,-5.071,-7.31,-1.704,-0.207092,0.009833,-0.051021
1765227770087722216,-4.851,-2.09,-1.415,-0.646526,0.135752,-0.384289
1765227770113032467,-11.355,0.277,-3.024,-0.067712,-0.320908,0.199333
1765227770137707842,3.984,0.266,-0.511,0.010246,-0.878114,0.171965
1765227770162707051,-1.236,4.018,-1.279,0.470179,-0.024402,-0.254943
1765227770187946011,3.983,8.145,3.005,1.768534,-1.336058,-0.296456
1765227770212603261,-6.841,-8.787,-13.541,1.547315,0.693768,-0.746253
1765227770238190763,-7.275,-15.33,-1.516,-1.877024,-0.023822,-0.616053
1765227770262483304,-3.409,2.77,-4.762,1.385155,-0.275198,-0.530266
1765227770287867055,-6.621,-0.453,-7.307,-0.42187,-0.133034,-0.755887
1765227770312902098,-1.996,-0.819,-1.792,0.65934,0.094728,-0.227108
1765227770337273556,-12.869,-2.76,-7.498,-0.090188,0.131681,0.144602
1765227770362262473,-16.501,-3.825,-2.4,-0.143496,0.7475,-0.246716
1765227770387359641,-3.754,-5.637,-6.146,0.622989,0.12994,0.05616
1765227770412155349,-7.197,-1.375,-5.806,0.45077,-0.225943,0.195731
1765227770437104600,-3.319,-2.006,-1.727,-0.505594,0.228658,-0.562721
1765227770463032311,-0.311,3.147,5.958,1.400508,-0.67818,-0.216279
1765227770487090185,-3.631,0.169,-8.277,0.536495,-0.23337,0.639853
1765227770512962312,-6.159,-10.141,2.068,-1.918799,0.199092,-0.606172
1765227770537954854,-2.609,-1.305,-6.643,0.35712,0.196995,-0.315514
1765227770562914146,-2.644,-2.178,-9.439,0.451128,0.050149,-0.068156
1765227770588051272,-9.848,0.286,2.536,0.308467,0.158867,-0.056741
1765227770612902148,-4.044,-9.753,4.784,-1.293628,-0.239079,-0.364668
1765227770637914107,-3.225,2.629,-0.444,0.114889,-0.503326,0.157096
1765227770662970649,-11.81,2.951,5.962,0.978753,0.217355,0.601754
1765227770688442859,-6.769,-11.701,-8.876,-0.475371,0.035712,-0.238762
1765227770713185859,-14.604,-10.315,-22.621,0.082536,-0.05518,0.168682
1765227770737973735,-21.92,-14.912,-15.089,-0.476996,0.145053,0.409978
1765227770762910944,-1.356,-2.927,-10.023,1.096425,-0.433401,0.516739
1765227770787839694,-4.332,-5.569,1.794,-0.299821,-0.114655,0.075743
1765227770812723945,-4.26,2.666,-2.134,0.685602,0.119679,-0.326768
1765227770838104405,-8.303,-3.462,-2.078,-0.259361,-0.054249,-0.121125
1765227770862890697,-16.73,-11.589,-13.902,-0.478666,0.004019,0.002503
1765227770887995072,-15.73,-4.895,-6.246,-0.219269,0.351608,-0.140646
1765227770912630614,-10.593,-6.749,-3.878,-0.909606,0.251956,-0.257987
1765227770937995199,-8.168,-3.961,-11.076,0.531132,0.157276,0.045211
1765227770962651782,-4.998,-9.525,-14.257,0.694706,0.201313,0.016956
1765227770988343868,-2.135,-1.59,-7.833,1.177034,-0.272891,0.213085
1765227771012508867,-5.739,-3.084,2.915,-0.567856,-0.134846,0.013826
1765227771038265786,-15.36,-5.407,-5.789,-0.674353,-0.151153,0.008655
1765227771062713910,-6.585,-9.475,-6.04,-0.115441,0.151877,-0.303037
1765227771087575452,-8.545,-2.487,-6.637,0.075096,-0.296762,0.100369
1765227771113240288,-2.361,-5.859,-6.449,-0.112081,0.008209,0.19684
1765227771137702913,-8.389,0.248,-12.199,0.418144,-0.013112,-0.171467
1765227771162642455,-4.97,-0.456,1.117,-0.789326,0.054208,-0.351362
1765227771187665247,-15.494,-7.139,1.008,-0.263894,-0.018733,-0.049179
1765227771212892248,-6.447,-8.417,-7.0,0.894487,0.097128,0.395315
1765227771237722040,-8.363,-0.546,-8.905,1.011144,-0.22734,0.093558
1765227771263359417,-0.391,-5.072,-15.129,1.424594,-0.352606,0.373866
1765227771287874459,-11.049,-2.537,-5.177,-1.352939,-0.34284,0.246368
1765227771313388335,-17.52,-12.968,-9.014,0.484955,0.746883,-0.070854
1765227771338168378,-8.665,-3.492,2.273,0.470278,0.101489,-0.683921
1765227771363866879,-8.589,-6.68,-4.781,0.829559,0.174172,0.259384
1765227771388336838,-4.926,-5.61,-1.528,-1.70591,0.074147,-0.708163
1765227771413584339,-9.038,-2.522,-5.294,0.577904,0.148549,-0.309942
1765227771438213964,-6.492,-2.93,-3.866,-0.081458,-0.089164,-0.108606
1765227771463450090,-3.049,-8.82,-5.978,0.713334,0.201722,0.046293
1765227771488568549,-13.319,-2.831,-4.579,-0.342684,0.279206,0.015746
1765227771512981049,-9.238,-11.806,-0.904,-0.209447,0.02267,0.035815
1765227771538068050,-21.079,-9.369,-27.41,-0.684839,0.210106,0.19894
1765227771563230218,-7.408,-1.454,0.804,0.264865,0.095141,0.182961
1765227771588136676,-5.003,-1.448,-5.397,0.296857,-0.243789,-0.000902
1765227771613263344,-0.933,-3.808,-10.812,0.796206,-0.279297,0.315761
1765227771638165136,3.18,5.212,2.684,-0.920947,-1.010931,-0.145984
1765227771663361346,-4.102,-15.382,-9.343,1.473628,0.677687,-0.264232
1765227771687939179,-4.143,-1.712,-0.74,-1.025476,-0.093595,-0.731747
1765227771712952680,-8.677,-5.617,2.633,1.122941,0.471412,-0.186737
1765227771738370723,-8.567,-0.573,-2.16,-0.935588,0.377062,-0.912065
1765227771762707764,-12.542,-4.996,-1.789,-0.425495,0.040008,0.155263
1765227771788104516,-13.65,0.427,-3.178,-0.466535,0.038787,-0.002351
1765227771813104058,-1.189,-4.037,2.355,-1.244036,-0.097266,-0.101026
1765227771838509351,-10.963,-2.558,1.363,0.152922,0.305947,-0.248523
1765227771862804392,-6.512,-0.048,1.651,-0.547185,0.313946,-0.551702
1765227771888225019,-0.595,-6.129,2.051,0.372123,-0.324521,-0.304011
1765227771913152561,-5.412,2.633,2.808,-0.770721,0.203551,-0.295546
1765227771938132270,-15.228,-1.069,-8.506,-1.41062,-0.259369,0.116766
1765227771963570313,-3.454,-7.271,-16.302,-0.140915,-0.207294,0.348708
1765227771987282937,-9.471,-1.387,-5.573,-1.700889,-0.545286,-0.007278
1765227772013408814,-9.002,-2.266,-9.213,0.211162,0.02197,0.060427
1765227772038970316,-5.051,-4.915,1.121,-0.110774,0.017238,-0.268638
1765227772063302399,-11.088,-2.952,-4.733,-0.610546,0.055146,-0.162792
1765227772087845191,-11.824,-2.525,-7.395,-0.064174,-0.246916,0.050685
1765227772113202567,-4.512,-4.34,-2.423,-0.406526,0.067245,-0.117199
1765227772138396443,-8.638,3.823,-4.84,-0.180631,0.02829,-0.506951
1765227772163463444,-15.33,-3.723,-5.35,-0.748337,0.01439,0.066472
1765227772188125403,-8.415,1.444,-1.214,0.498447,0.18283,0.10683
1765227772213387279,-4.743,-4.04,-1.079,-0.18655,-0.011051,-0.126857
1765227772238193946,-8.891,-1.335,-2.427,-0.133794,-0.201668,0.012293
1765227772263093655,-7.674,-4.531,-3.765,0.006299,-0.211379,0.276619
1765227772288338781,-10.457,-6.641,-3.676,0.246895,0.158328,0.05375
1765227772313036240,-4.66,-3.6,-2.644,-0.010586,0.105632,-0.222749
1765227772338433449,-8.962,-5.395,-3.013,-0.17692,-0.096113,0.082564
1765227772363177491,-4.092,-1.728,2.346,-1.040614,-0.011736,-0.170103
1765227772388085325,-2.267,5.05,-7.673,1.037063,-0.142163,-0.124375
1765227772413163743,-7.902,-9.438,-2.782,-0.799273,-0.03399,0.148489
1765227772437737160,-3.835,-1.095,-7.554,0.502439,-0.073743,-0.045913
1765227772463100203,-4.718,-6.703,-2.156,-0.024924,-0.099315,0.184366
1765227772487928537,-10.043,-1.185,-9.627,-0.305115,-0.03903,-0.01995
1765227772513259705,-2.756,-4.373,-6.67,0.366903,0.106846,-0.125765
1765227772538422247,-2.85,-5.7,-6.85,0.261056,-0.10277,-0.028204
1765227772562802414,-22.174,-4.9,-9.165,-1.780746,-0.331067,0.142968
1765227772587909665,-6.334,-3.617,2.151,0.418142,-0.090606,-0.163382
1765227772612716082,-5.552,4.157,-8.251,0.456171,-0.057164,0.146722
1765227772637915208,-15.23,-1.401,-6.966,-1.237991,-0.172487,-0.119677
1765227772664299169,-10.375,2.545,-8.773,-0.165669,-0.222019,0.317296
1765227772687658209,-10.231,-12.998,-11.808,0.113247,-0.034521,-0.040028
1765227772712827293,0.075,-2.475,-1.118,0.600813,-0.42761,0.738656
1765227772738201461,-1.543,4.899,0.866,0.915446,-0.003443,-0.401813
1765227772763519338,-6.833,-0.98,0.993,-0.388981,-0.119412,-0.246589
1765227772788024713,-7.949,-0.049,-0.986,-0.413973,0.009556,-0.215747
1765227772813623673,-1.011,0.328,2.097,0.470586,-0.038676,0.167275
1765227772837906172,-2.647,5.443,-0.208,0.395439,-0.048171,-0.37552
1765227772863203965,-1.979,-8.898,-3.454,-0.159592,-0.242627,0.124074
1765227772888547675,-6.477,-4.965,-7.544,0.410852,-0.062677,-0.439983
1765227772913673759,-6.893,2.695,-5.883,0.288972,0.098568,0.151718
1765227772938311134,-13.467,-1.799,-4.259,0.091392,0.306423,0.012246
1765227772963333177,-9.482,-5.59,-1.54,0.063383,0.454784,-0.490737
1765227772988240177,-6.672,-4.369,1.074,0.708749,0.150285,0.387332
1765227773013175428,1.393,0.003,-14.503,1.672105,-0.327564,0.509816
1765227773038719138,-0.551,-2.153,-2.739,1.079082,-0.663808,-0.315151
1765227773063297346,-0.86,-2.907,-1.251,0.123126,-0.549989,0.24802
1765227773088368931,1.361,6.752,-2.144,0.797959,-0.603823,-0.39395
1765227773112986306,-9.628,0.732,1.646,-0.524003,0.138707,-0.183289
1765227773138011598,-2.081,-0.165,-7.151,0.754036,-0.333249,0.481316
1765227773163550392,-14.353,-7.901,0.123,-0.183952,0.474418,-0.080255
1765227773188055017,-4.621,-7.8,-5.48,0.542803,-0.115702,0.159184
1765227773213543185,-7.213,-5.257,-5.866,-0.054096,0.183117,-0.467228
1765227773238165560,-11.512,-5.824,-10.41,0.487022,-0.044577,0.158181
1765227773262578810,-9.071,0.611,-7.502,0.574194,-0.085243,-0.002152
1765227773287950603,-10.854,-7.059,-11.376,0.213556,-0.067175,0.408339
1765227773312521603,-9.043,-8.743,-6.314,-0.260659,0.118764,-0.146539
1765227773337959771,-9.044,-6.277,-6.128,-0.110843,-0.082841,-0.073956
1765227773362504188,-6.778,-7.406,-4.42,-0.158003,-0.108431,0.02944
1765227773387736356,-12.423,-2.475,-4.902,-0.361563,0.269325,-0.307188
1765227773412416939,-8.099,-3.506,-0.103,0.091531,0.078076,0.076337
1765227773437382232,-8.137,-1.135,-5.65,0.167347,-0.145981,0.275442
1765227773462267774,-9.273,-5.131,-4.081,0.125487,-0.098456,0.261011
1765227773487980776,-10.824,-4.348,-10.096,0.337471,-0.279366,0.225437
1765227773513430153,-8.729,-12.222,-8.169,-0.215659,-0.028359,0.17802
1765227773537594694,-8.331,-3.208,-13.269,0.022858,-0.053745,0.2412
1765227773563013653,-5.003,-2.109,-7.47,0.764717,-0.082384,-0.018729
1765227773587095861,-2.732,-1.603,4.089,0.007775,0.066543,0.032666
1765227773613452781,3.583,-1.388,3.462,-0.184413,-0.675237,0.334305
1765227773638470698,-5.105,-5.384,-2.272,-1.322382,-0.156358,-0.755568
1765227773663059407,-14.484,-4.436,-17.265,1.004874,0.145037,0.309515
1765227773688354491,-16.584,-15.34,-4.451,-4.442254,0.2128,-0.255662
1765227773712981867,-20.622,-9.138,-10.777,-0.286067,0.407457,-0.720582
1765227773738855119,-3.904,-1.626,-0.778,-1.006644,0.290294,-0.414267
1765227773763086118,-1.325,3.425,0.428,0.398081,-0.107998,-0.062638
1765227773788338411,3.762,7.487,-4.55,1.36235,-0.844134,0.130165
1765227773813055412,-5.332,-10.9,-2.753,1.207351,0.116782,0.094247
1765227773838139496,-7.964,-1.246,-2.861,0.654549,0.09249,0.402814
1765227773863243330,-6.924,-12.427,-12.511,0.020758,0.069705,-0.170626
1765227773888257456,-10.935,-7.106,-4.723,-0.39117,0.088295,-0.099886
1765227773913337165,-5.107,-7.585,-3.342,-0.32854,-0.026031,0.176274
1765227773938395624,-6.411,-3.984,-4.073,-0.519947,0.202363,-0.505095
1765227773963056333,-5.36,-7.451,1.352,-0.059615,0.144867,0.074938
1765227773988575876,-4.127,-3.914,-1.027,0.378899,-0.099689,0.188956
1765227774012771917,-16.582,-4.054,-6.954,-0.799287,0.082032,-0.055478
1765227774038544628,-14.227,-6.592,-1.956,-1.453259,0.18403,0.078019
1765227774063301087,-15.117,-1.261,-18.962,0.792829,-0.219716,0.350381
1765227774087820045,-9.748,-9.012,-3.213,-0.005334,0.065038,0.196762
1765227774113309213,-4.897,-3.849,-3.343,0.382845,-0.014797,0.252969
1765227774138237964,-2.182,2.867,-1.512,1.278172,-0.035951,-0.138659
1765227774162921964,-13.73,-3.269,-1.972,0.357952,0.099272,0.226449
1765227774187398506,-7.701,-3.524,2.557,-0.591841,0.10326,0.20674
1765227774213274341,-1.468,-2.119,-8.381,0.537693,-0.42008,-0.073477
1765227774238227467,-6.658,-1.744,-2.533,0.068778,-0.059087,-0.041507
1765227774263528719,-9.156,-2.231,-3.703,-0.110632,-0.104194,-0.023847
1765227774287835552,-14.444,-7.523,-5.131,-0.613865,-0.010977,0.1937
1765227774313488887,-22.266,-3.69,-11.651,0.163721,0.420662,0.102835
1765227774338320346,-17.285,-14.313,-7.283,-2.107373,0.562974,-0.085566
1765227774363541847,-15.584,8.556,-3.009,-0.378855,0.079312,0.077274
1765227774388076472,1.234,3.438,2.195,-1.709169,-0.619936,0.718472
1765227774413593432,-7.307,-9.145,-4.801,-0.645702,0.016282,-0.814117
1765227774438045265,-15.083,-4.359,-3.56,-1.030021,0.256337,-0.936663
1765227774463257808,-17.138,-11.427,-1.138,-2.29978,0.458865,0.328652
1765227774488958435,-13.236,-2.937,5.914,-1.592867,0.380156,0.120287
1765227774512937142,-14.537,-3.897,-6.946,-0.113274,0.000308,-0.035368
1765227774538970020,-2.565,-8.119,4.523,-0.648656,-0.170604,0.257146
1765227774562888061,-1.809,-1.667,-1.011,-1.080948,-0.225801,-0.688367
1765227774588194562,-0.506,2.293,-8.388,0.387895,-0.012037,-0.411445
1765227774613609730,-9.346,-4.102,-6.684,-0.099496,-0.009443,-0.080052
1765227774638044313,-5.779,-6.135,-1.158,-0.288547,-0.140624,0.307826
1765227774663263856,-16.009,-6.34,-6.216,-0.262467,0.175058,0.150232
1765227774688414899,-5.668,-5.048,-8.749,0.451565,-0.149189,0.169497
1765227774712962691,-13.843,-10.837,-7.104,-0.762919,0.198671,-0.087699
1765227774738244275,-9.988,4.029,-3.387,-0.079789,0.06077,0.548998
1765227774762570983,-10.305,-1.572,0.314,-0.114505,0.007784,0.078088
1765227774787886776,-11.435,-3.115,-6.556,0.202907,-0.115195,0.247376
1765227774813091903,-11.366,-7.964,5.055,-0.919648,0.320505,0.036354
1765227774837799278,-5.931,-3.566,-6.036,0.47743,0.089354,0.168851
1765227774862653445,-13.372,1.171,-0.497,0.706238,0.183068,0.249877
1765227774887726821,-10.841,-9.555,-5.603,-1.457942,0.00565,0.184744
1765227774912996281,-0.763,-2.359,-10.704,0.85529,-0.475001,0.4984
1765227774938141240,-5.852,-1.854,-0.629,-0.453277,-0.210884,0.137282
1765227774963417575,-4.575,-5.226,0.089,-0.350277,0.231519,-0.439834
1765227774987646116,-4.471,-0.769,-14.506,1.146712,-0.304455,0.490274
1765227775014308036,-7.472,-6.278,-4.505,0.214757,0.2943,-0.225084
1765227775037619993,1.573,-3.841,-0.531,-0.041481,-0.175666,-0.124022
1765227775063940912,0.03,2.358,3.934,0.414857,-0.40186,0.155227
1765227775087908870,-6.963,-8.05,-11.999,0.369352,-0.050116,0.168049
1765227775114045331,-14.595,-11.389,-13.895,-0.332935,0.011768,0.054793
1765227775138085163,-16.865,-2.767,-14.496,-0.232745,0.145359,0.295806
1765227775163582123,-15.171,-8.124,-9.095,-0.052296,0.041849,0.170965
1765227775188624708,-13.023,-5.828,-7.347,-0.332873,0.12207,-0.289264
1765227775213990834,-13.593,-2.175,1.722,-0.328799,0.091036,0.12939
1765227775238482876,-6.438,-3.391,-5.819,0.111522,-0.113882,0.237478
1765227775263317251,-13.264,-11.223,-13.421,-0.251821,0.091803,-0.080745
1765227775288114002,-6.868,0.824,2.47,-1.093615,0.0416,-0.644584
1765227775313738212,-15.738,-12.549,-11.244,-0.87373,0.138191,-0.023865
1765227775339066547,-20.367,-7.939,-9.599,-0.371238,0.18437,0.097317
1765227775363413922,-11.079,-8.494,-3.977,-0.776091,0.170864,-0.313164
1765227775388462339,-9.949,-1.497,-9.363,-0.317676,-0.113957,0.360355
1765227775412666005,-12.624,-3.157,-1.436,-0.701195,0.223076,-0.076573
1765227775437628589,-8.346,-7.562,-1.634,0.276812,0.143369,0.229814
1765227775462615215,-4.885,-7.382,-9.049,0.07738,-0.26442,0.024359
1765227775488165717,-7.737,-2.303,-2.483,0.181424,-0.168864,0.126971
1765227775513112343,-0.652,3.684,-1.011,-0.68779,-0.082222,-0.110064
1765227775537604968,0.403,8.073,-3.342,1.63526,-0.164274,0.014901
1765227775563061636,-3.459,-0.624,-3.403,0.813284,-0.425928,0.650715
1765227775588032595,-3.333,-11.38,4.553,-1.843082,-0.111223,-0.581943
1765227775613369013,-2.441,-2.297,-0.364,0.091658,0.019018,-0.422761
1765227775638405889,-4.454,-7.543,-5.285,-0.006664,0.245799,-0.113176
1765227775662623805,-3.878,-4.02,-4.636,0.305205,0.110685,-0.086945
1765227775688477058,-3.93,-1.036,-0.1,0.46557,0.012821,0.099629
1765227775713586142,-12.047,-9.012,-5.326,-0.624314,-0.093113,-0.048413
1765227775738252309,-6.874,-1.439,-3.95,0.939809,-0.160065,0.442064
1765227775762848518,-3.454,2.014,2.198,-0.879669,0.009234,-0.526265
1765227775787367934,-10.442,-1.699,-2.436,-0.460853,-0.091087,0.16908
1765227775813969438,-0.945,-6.202,-7.003,0.864429,0.293076,0.154441
1765227775837804062,-6.858,-6.745,-5.823,0.253965,-0.204684,0.144366
1765227775863566689,-6.161,-2.64,-5.753,-0.05663,0.012449,-0.207562
1765227775889113691,-6.898,-5.794,-9.762,0.411903,-0.184873,0.363805
1765227775914455650,-11.292,-6.409,-4.429,-0.11022,0.104034,-0.228939
1765227775937967274,-5.41,-5.538,-1.461,0.216173,-0.020626,0.103028
1765227775964036276,-10.816,-3.081,-6.522,-0.716209,0.106374,-0.620842
1765227775988549860,-10.398,-5.561,-1.555,0.257508,-0.105497,0.234595
1765227776013478360,-10.001,-4.995,-5.262,-0.076197,-0.000234,-0.165992
1765227776038318986,-6.105,-2.807,-7.518,0.114234,-0.052117,0.103747
1765227776063606196,-9.055,-3.881,-3.738,-0.115978,0.137474,-0.132753
1765227776088394571,-5.145,-3.323,-2.419,0.037897,0.151535,-0.004138
1765227776114081907,-13.352,-9.011,-2.238,-0.188093,0.178891,0.089127
1765227776138273406,-11.406,-6.723,-13.664,0.210179,-0.170652,0.21422
1765227776162948698,-4.105,-0.9,0.343,0.660695,0.08864,0.27665
1765227776188615200,-17.382,-2.724,-13.504,-0.452441,0.13971,-0.363667
1765227776213622368,-8.248,-5.349,-0.464,-0.81134,-0.056847,0.216824
1765227776238280910,-4.974,-4.74,0.507,-0.377651,0.102395,-0.381343
1765227776263424411,-11.446,-2.563,-1.721,0.289531,0.023685,0.123164
1765227776288237745,-9.586,-2.726,-7.475,0.149528,-0.028538,0.191905
1765227776313525496,-5.273,-1.896,-4.416,-0.036292,-0.152501,0.218999
1765227776338443622,-3.826,-2.356,-1.548,0.540775,-0.218447,0.056046
1765227776362821538,-5.705,-0.396,4.197,-0.316729,-0.382429,0.14364
1765227776388010540,-9.812,-6.02,-4.124,-0.709908,0.052512,-0.227506
1765227776412540956,-7.426,-2.762,-3.421,-0.036769,-0.092636,0.086971
1765227776437905249,-4.415,-2.476,-1.496,-0.231362,0.217384,-0.185596
1765227776463028167,-8.614,1.083,4.236,-0.225995,0.223279,-0.187639
1765227776487696293,-10.467,-10.433,-8.376,0.756476,-0.227474,0.68735
1765227776513269003,-1.903,-9.014,-4.482,-0.697299,-0.149742,0.740311
1765227776537721711,-11.395,-6.066,0.34,-0.339504,0.032316,-0.203013
1765227776563302338,-0.022,-5.045,-14.045,1.168008,-0.090525,0.174282
1765227776589139507,-5.311,0.107,2.355,-0.349993,-0.092425,-0.026239
1765227776613407756,-11.265,-5.9,-16.167,0.511851,0.072658,0.128019
1765227776638016632,-5.752,-4.34,-9.62,0.355666,0.315248,-0.022983
1765227776663665134,-4.947,-4.818,1.887,0.218748,0.272867,-0.006066
1765227776689388177,-5.117,0.254,-2.348,-0.064486,-0.074703,-0.058072
1765227776713847969,-2.943,-3.837,-11.318,0.148278,-0.181501,0.174163
1765227776738563886,-12.261,-9.51,0.662,-0.819317,0.100748,-0.468344
1765227776763420012,-13.318,-6.872,6.095,-3.048561,0.620476,-0.555702
1765227776788037137,-14.648,-5.214,-14.549,0.62114,-0.055488,0.558146
1765227776813643722,-8.204,-2.965,-6.63,0.463343,-0.020811,0.225225
1765227776838390389,-3.154,-0.756,0.506,-0.13755,0.046184,-0.217488
1765227776863557849,-0.933,-6.558,-5.159,1.77032,-0.01939,0.302456
1765227776888945184,-6.806,1.582,-3.239,-0.506822,0.097659,-0.551895
1765227776913292392,-6.94,-6.722,-6.659,-0.014223,-0.113014,-0.112354
1765227776938411060,-1.673,2.938,-11.095,1.419327,-0.000794,-0.005912
1765227776963616311,-3.892,-1.79,4.171,0.034507,-0.394931,-0.338502
1765227776988298144,-5.874,1.506,-5.73,0.002864,-0.164227,0.27077
1765227777013592229,-3.208,-8.668,-3.357,-0.072966,0.155052,-0.117864
1765227777038085563,-3.492,-1.694,-6.444,0.243614,-0.158639,0.222831
1765227777063008355,-8.625,-2.767,0.342,-0.783275,0.230032,-0.244877
1765227777088092106,-1.419,0.661,0.229,0.109516,-0.388458,-0.283057
1765227777112898940,-6.121,-6.05,-6.823,0.062734,0.286765,-0.220452
1765227777138212233,-5.121,0.753,-0.023,1.027403,0.099219,-0.191398
1765227777162931109,-1.886,-5.399,1.799,-0.351894,0.123729,-0.205833
1765227777188334568,-1.357,-1.122,-2.385,-0.218066,-0.222199,0.05256
1765227777213051902,-12.931,-3.731,-7.29,0.058609,-0.18108,-0.088471
1765227777238095903,-13.56,-11.205,-7.431,-0.724915,-0.227245,0.247335
1765227777263163488,-14.629,-5.431,-5.139,0.082999,0.438424,-0.189202
1765227777287784738,-1.795,-5.513,-6.422,0.422397,-0.169132,0.461629
1765227777313233281,-5.016,-5.459,9.051,-1.184315,-0.109363,0.005736
1765227777338170657,0.466,4.144,-8.77,1.114568,-0.259414,-0.292832
1765227777363450200,-13.234,-2.752,-6.95,-0.410627,-0.133363,0.182874
1765227777387691700,-6.204,-12.617,-3.563,0.053893,-0.141014,0.257151
1765227777413208826,-4.891,-4.7,-3.425,-0.626297,0.00392,-0.291191
1765227777437666201,-9.222,-3.33,5.208,-2.700878,0.244323,-0.715939
1765227777463570704,-8.224,7.55,-11.018,0.214494,-0.170732,0.270246
1765227777488680913,-9.923,-2.664,-4.454,-0.775017,0.073112,-0.429216
1765227777513490914,-8.323,-4.331,-2.261,-0.810888,0.090083,-0.224314
1765227777538015789,-10.926,-4.545,-7.972,-0.559775,-0.087445,0.086199
1765227777563384290,-14.522,-7.706,-15.023,0.766408,-0.238548,0.792693
1765227777588348791,-12.403,-14.531,-16.394,-0.451545,-0.233471,0.008479
1765227777613269084,-23.603,-1.722,-2.374,0.746416,0.265639,0.677509
1765227777638411585,-3.275,-3.929,-1.855,-1.495588,-0.367611,-0.139504
1765227777663154752,-4.747,-0.666,-2.226,0.497326,0.12706,0.081057
1765227777689138796,-12.375,-2.159,-3.376,-0.405141,-0.148665,0.067051
1765227777713666713,-6.755,-11.152,-1.993,-0.457876,0.117068,0.094813
1765227777738728006,-7.559,-2.978,-2.098,-0.456438,0.245317,-0.498659
1765227777763274714,-10.381,-5.573,-1.971,0.135545,-0.148024,0.09015
1765227777787701422,-8.282,-3.779,-12.274,0.793777,-0.276896,0.242567
1765227777813650425,-2.455,-5.55,2.543,0.474056,-0.088708,0.124038
1765227777838259800,-6.392,2.762,-3.529,0.051075,0.059818,-0.509997
1765227777863202593,-9.185,-0.891,-7.896,0.242311,-0.398352,0.030174
1765227777888013010,-3.904,-7.582,-4.9,0.185685,-0.098178,0.529002
1765227777912725677,-9.533,0.312,-9.275,0.217681,0.252839,0.067797
1765227777938501179,-10.722,-6.003,-6.584,0.203601,0.036414,-0.229642
1765227777963442180,-7.857,-9.057,5.107,-0.448142,-0.001601,-0.207673
1765227777987676930,-3.305,-4.395,-4.062,-0.655411,-0.207282,0.11436
1765227778013446307,-4.912,-0.825,-4.316,0.944645,-0.099247,0.152598
1765227778037892474,-21.778,-4.445,-11.913,-1.179035,0.115665,-0.119612
1765227778063312392,-7.557,-9.481,1.738,-0.626534,0.171896,0.428386
1765227778087734683,-0.623,-0.124,-5.563,0.741705,-0.403434,0.239326
1765227778112594059,-9.151,-7.285,-2.181,-0.301623,0.186992,-0.107095
1765227778138283145,-5.629,-5.008,-0.39,-0.160562,0.047438,-0.090556
1765227778163578729,1.956,2.381,-4.366,0.013357,-0.505169,0.489321
1765227778188352522,-2.89,-0.423,4.606,-0.536081,-0.34738,-0.119511
1765227778214157816,-3.547,-0.833,-7.941,0.163956,-0.222925,-0.06022
1765227778238840524,-0.366,-5.167,3.831,-0.303244,-0.199379,0.309828
1765227778263650858,-0.016,-4.599,-2.758,-0.242152,-0.033701,-0.13646
1765227778288448442,-8.53,-0.846,3.7,-1.019395,-0.081503,-0.678027
1765227778313568402,-8.138,-1.96,-3.088,0.307272,0.039393,0.142802
1765227778338863111,-8.943,-0.225,-1.54,-0.307977,0.111683,-0.283109
1765227778363386153,-3.579,-4.813,-3.849,0.199421,0.077435,-0.009209
1765227778388581113,-6.951,3.559,-1.357,-0.037025,-0.172536,0.123334
1765227778412807154,-11.051,-5.433,-7.969,0.738857,0.075331,0.387967
1765227778437767947,-12.519,-1.543,-0.321,-0.510577,-0.006561,0.086961
1765227778462823281,-3.634,-3.477,-6.163,0.351027,-0.044902,0.255124
1765227778487698407,-8.875,-3.122,-6.755,0.424057,-0.228214,0.114134
1765227778512733866,-3.236,-2.212,-0.646,0.320231,0.04778,0.010536
1765227778538376701,-0.695,2.584,0.351,-0.02241,-0.109487,-0.321426
1765227778563138744,0.11,-0.07,-2.559,1.582576,-0.303153,0.470407
1765227778588258036,-10.409,-1.92,-2.088,-0.261332,0.061476,0.018901
1765227778613231996,-13.213,-3.741,-10.766,0.224037,-0.008932,-0.146238
1765227778638105913,-11.044,-0.703,-15.285,0.976772,0.097636,0.044969
1765227778662736663,-11.503,-5.4,-2.979,-0.397073,0.043009,0.059906
1765227778688238873,-3.032,2.704,-3.858,0.617644,-0.106511,-0.039647
1765227778713883251,-10.814,-2.024,-0.571,-0.680957,-0.000252,-0.147905
1765227778738650918,-7.031,-4.857,-4.396,0.385355,-0.24917,0.342247
1765227778763000376,-15.556,1.305,-5.292,0.109119,-0.022837,-0.26444
1765227778787458709,-9.695,-10.536,-3.069,-0.307092,0.584639,-0.248157
1765227778813141795,-7.798,-2.639,2.613,-0.657907,-0.147389,-0.712463
1765227778837723753,-2.948,1.074,0.185,0.084938,-0.247251,-0.014886
1765227778862683379,-1.077,3.707,-3.422,0.274326,0.024275,-0.248414
1765227778888561548,-15.28,-4.233,-8.605,0.05273,0.127898,0.076197
1765227778913531549,-2.87,-2.169,-5.271,0.326041,0.060836,0.344158
1765227778937665424,-3.424,-6.383,-2.423,-0.689878,-0.025179,-0.270173
1765227778964189969,-2.546,-4.056,1.302,-0.40031,-0.276036,-0.390741
1765227778987814134,-2.357,-1.599,-2.723,0.601891,-0.032551,0.179295
1765227779014156012,-5.145,-2.565,-8.832,-0.291127,-0.269822,0.078989
1765227779038354553,-9.209,-5.215,-1.875,0.055782,-0.147794,-0.109357
1765227779063472055,-12.074,-10.26,-11.0,-0.025728,-0.051121,-0.076162
1765227779088548181,-11.031,-10.44,-11.19,-0.39447,0.486976,-0.121018
1765227779113374223,-0.843,-0.457,0.042,0.431184,-0.420531,0.066535
1765227779138248224,-1.523,-5.509,-1.687,1.027449,-0.324636,0.669166
1765227779163308350,-14.282,-8.393,-15.399,-0.629227,-0.077708,0.251015
1765227779188299767,-5.37,-2.364,1.993,-0.400122,0.004164,-0.099695
1765227779213627811,-6.041,-5.603,-6.776,-0.469266,0.224815,-0.408108
1765227779238426936,-13.948,-6.582,-6.279,0.123551,0.187575,0.037256
1765227779263242770,-16.231,-5.049,-8.721,0.02423,0.322842,-0.126856
1765227779288223313,-8.69,-9.143,-1.794,-0.262795,0.254943,0.237396
1765227779313728523,-7.49,0.44,0.312,-1.033964,0.129345,-0.681713
1765227779338683232,-10.287,0.542,-3.613,-0.202897,0.37158,-0.573027
1765227779363231816,-1.645,-3.207,7.767,-0.402856,0.111508,0.017809
1765227779388817693,-8.343,-2.844,-5.003,-0.053193,-0.142,0.024648
1765227779412453441,-14.478,-7.773,-7.267,-0.123892,-0.049382,-0.099334
1765227779437385651,-5.197,-8.943,1.684,-0.054014,0.194826,0.174761
1765227779462380318,-7.044,-5.958,-1.51,-0.164297,0.065132,-0.082169
1765227779487378277,-4.223,-3.658,-8.903,0.43773,0.00274,0.110214
1765227779512314195,-3.372,-2.245,-1.521,0.337066,-0.044991,-0.245122
1765227779537290029,-6.926,-4.181,-5.905,0.210371,-0.034759,0.173018
1765227779562316697,-5.23,2.108,0.415,-0.688238,-0.20661,-0.881448
1765227779587279198,0.079,1.797,-1.605,2.071674,0.108187,0.668726
1765227779612727075,-7.352,-5.493,7.158,-1.732486,0.210811,-0.547214
1765227779637738826,-6.527,-6.183,-6.879,-0.60562,0.476557,-0.630203
1765227779663176286,-6.068,-0.851,3.344,-0.081051,-0.190966,-0.907312
1765227779687701702,-14.425,-1.94,-8.935,-0.265039,0.370957,0.033448
1765227779713734747,-9.902,-7.702,-5.722,-2.390796,0.267189,0.62186
1765227779738598706,-27.292,-0.2,-20.483,-0.653866,-0.077491,0.131605
1765227779763458457,-4.029,-9.455,-6.847,1.091191,0.11887,0.647582
1765227779788084165,-1.208,-2.325,-4.861,0.303271,-0.096554,0.359654
1765227779813971959,-8.308,-3.299,-2.225,-0.381657,-0.032879,0.060325
1765227779838580626,-5.751,-6.124,-5.282,0.003973,0.07244,-0.152114
1765227779863313794,-7.428,-5.256,3.231,-0.881158,-0.010053,-0.573593
1765227779888825212,-1.631,0.273,-10.263,1.191825,-0.03351,0.341209
1765227779913272629,-9.711,-1.136,-0.242,-0.646051,-0.052877,-0.236481
1765227779938850506,-6.14,-2.552,-3.654,-0.296277,-0.073315,-0.106479
1765227779963551548,-4.619,-7.583,-5.675,0.391428,-0.170835,0.300269
1765227779988119548,-6.26,1.23,-6.563,-0.202628,-0.297238,0.292061
1765227780013384341,-0.689,-2.856,-12.251,0.161293,-0.469153,0.413558
1765227780037656799,-4.869,-5.801,-1.826,-0.119756,-0.15622,-0.059127
1765227780062632925,-4.946,-3.702,-15.87,1.140942,0.354626,0.282929
1765227780087567093,-7.998,1.722,-1.284,0.960867,-0.020639,-0.339423
1765227780112548427,-6.235,-2.878,-5.89,0.615266,-0.122528,0.012649
1765227780137961929,-2.308,-0.827,-3.313,0.658979,-0.152926,0.439467
1765227780162562137,-11.794,-8.181,-8.364,-0.23917,-0.14787,0.074594
1765227780187633472,-6.155,-3.771,-7.97,0.314169,-0.283431,-0.035967
1765227780212535973,-10.275,-5.699,-1.281,0.211835,0.211639,0.096399
1765227780237713932,-7.214,-4.283,-1.43,-0.421462,0.036405,0.13059
1765227780262523600,-7.83,-10.178,-11.938,0.380191,0.022383,-0.12906
1765227780287653517,-8.762,0.924,-8.86,0.933936,0.167819,-0.235668
1765227780313326020,-6.638,1.58,-6.367,0.703108,-0.344424,0.231522
1765227780338382979,-1.957,-2.518,-2.041,-0.472905,0.060556,-0.205955
1765227780364075606,-5.99,-3.951,-3.014,0.29687,-0.298302,0.344141
1765227780388247481,-3.07,-9.763,-5.777,-0.455139,-0.489609,0.59178
1765227780412664064,-9.371,9.095,-11.678,0.214155,0.146955,-0.067375
1765227780438579858,-11.585,-7.359,-10.198,1.480904,0.184579,0.574319
1765227780463190692,-9.952,-9.426,-7.106,-2.340841,0.254417,-0.290419
1765227780487446650,-12.84,-6.013,-8.296,0.16774,0.291583,0.135055
1765227780513116277,-7.231,-11.454,1.934,-0.863875,0.356908,0.010265
1765227780538109278,-20.428,-0.213,-12.527,0.238572,0.130468,0.614822
1765227780563390488,-7.368,-3.714,-3.93,0.827089,-0.071795,0.426493
1765227780588374739,-9.085,-2.485,-5.41,-0.255803,-0.036163,-0.372237
1765227780613215531,-5.291,-2.153,0.494,-1.398113,-0.356438,0.173713
1765227780638389116,-12.038,-2.343,-0.175,0.618182,0.307856,-0.021442
1765227780662997366,-4.688,-6.934,-6.842,-0.118861,0.335736,0.031753
1765227780688407243,-5.971,0.095,-0.63,-0.442928,0.025649,-0.35658
1765227780713678703,-14.083,-5.765,-9.218,-0.057058,0.131514,-0.248285
1765227780738461412,-5.564,-2.745,-2.279,-0.052056,0.100723,-0.068223
1765227780763377704,-5.408,-2.276,6.135,0.213432,0.126407,-0.11492
1765227780788165705,-3.82,-11.967,3.28,-1.212993,-0.286834,-0.646006
1765227780813568748,-2.765,-7.099,-2.317,0.572475,0.094625,0.329636
1765227780838639374,-9.438,-3.14,-7.747,-0.071259,0.013073,0.22454
1765227780863880459,-8.029,-2.424,-5.501,1.228632,0.044627,0.091692
1765227780888333459,-16.221,-8.863,-12.025,-0.062908,-0.081747,0.634228
1765227780912592500,-5.071,-2.755,-3.475,0.400687,0.078097,0.22828
1765227780937945002,-10.863,-5.133,1.088,-0.789497,0.219216,-0.156492
1765227780963042712,-10.851,-8.52,-11.948,0.903031,-0.027733,0.130026
1765227780987975004,-3.391,-9.774,-15.419,0.985691,-0.373252,0.514886
1765227781013019755,-10.549,-0.916,-4.57,-0.332231,0.14611,-0.187256
1765227781038555049,-3.88,-5.313,-7.779,0.702852,0.056154,0.215969
1765227781063085549,-10.828,-5.625,-3.103,-0.216604,0.064001,-0.039861
1765227781087697466,-9.636,-1.983,-7.626,0.309459,0.091594,-0.005701
1765227781113136384,-3.318,-1.742,0.978,0.034808,-0.154088,-0.024605
1765227781137862468,-5.762,-5.789,-7.627,0.187879,-0.140606,0.027587
1765227781162583469,-5.656,6.504,-0.072,0.470694,0.074675,-0.28142
1765227781188127721,-9.721,-2.827,-16.036,0.887403,0.264434,0.403173
1765227781213599473,-4.666,-7.492,-3.004,0.121806,-0.133059,-0.368765
1765227781238242806,-11.392,0.243,-3.77,-0.279176,0.350456,-0.471003
1765227781263326558,-8.864,-5.537,-7.077,0.517417,0.281207,0.08845
1765227781287590182,-11.157,-3.918,-6.974,0.079291,-0.040859,-0.091088
1765227781314081936,-10.509,-5.535,-9.243,0.339146,-0.081001,-0.16065
1765227781339314312,-9.227,-3.751,-7.646,0.124721,0.070114,0.177064
1765227781364090355,-5.432,1.52,3.496,-0.840612,0.12756,-0.441848
1765227781388257771,-4.959,-1.237,-4.681,0.026217,-0.097784,0.163955
1765227781413378189,-2.874,1.869,2.632,-0.245618,-0.037065,-0.112453
1765227781438387065,-0.904,-5.948,-3.426,0.422754,-0.125916,0.19826
1765227781463222774,-15.25,-5.64,-3.571,-0.39813,0.066035,-0.041533
1765227781488330733,-11.502,-2.893,-13.375,0.985004,-0.329086,0.707439
1765227781513173318,-16.849,-10.553,-19.892,-1.705921,0.150339,-0.019156
1765227781538335361,-10.522,-5.893,-7.452,1.287364,0.033409,0.273671
1765227781563546404,-3.886,-0.163,3.167,-0.57981,0.00228,0.422563
1765227781588739322,-3.615,-1.806,-0.29,0.942019,-0.099047,-0.11202
1765227781613318655,-6.983,-7.716,-7.374,-0.399602,-0.202708,-0.180591
1765227781637835905,-0.544,3.218,1.746,0.308259,-0.422929,0.094858
1765227781663334116,-2.066,1.922,-3.404,0.377056,-0.176265,-0.045266
1765227781688865743,-8.445,-3.567,-8.031,0.233212,-0.374911,0.110617
1765227781713120659,-4.6,1.521,-2.949,0.762157,-0.11435,-0.19074
1765227781738539786,-7.243,-3.635,-4.647,0.419275,0.063853,0.075524
1765227781762615993,-2.916,-9.761,-9.789,-0.380884,-0.276536,0.628784
1765227781788419829,-1.198,-0.322,-5.21,0.637589,-0.14368,-0.093885
1765227781813324455,-4.31,0.085,-6.188,0.787739,-0.367142,0.510432
1765227781837665372,-4.079,-9.746,-2.413,-0.545202,-0.011463,-0.172712
1765227781863684416,-4.589,0.305,-6.179,1.280068,0.06151,0.178992
1765227781887913791,-5.627,-2.268,11.819,-1.726439,0.171974,-1.109081
1765227781913206251,-2.745,-6.245,-5.539,0.480955,-0.494441,0.094187
1765227781938371002,-4.702,-12.077,-6.666,-1.419216,-0.18465,0.823362
1765227781962562252,-4.064,-2.695,5.055,-0.405277,-0.711137,-0.78965
1765227781988208962,-9.204,-3.818,-11.601,0.513216,-0.032268,0.015951
1765227782013433505,-9.125,-1.497,-3.415,-0.350675,0.14241,-0.146736
1765227782038260631,-2.726,-2.754,-1.77,0.18302,-0.051565,0.073274
1765227782063582507,-5.422,-4.903,-5.564,-0.780086,0.075753,-0.245641
1765227782088676467,-2.371,-2.999,-0.968,0.723017,-0.202437,-0.163459
1765227782114135552,-12.209,0.03,-1.055,-1.425108,0.502064,-0.53505
1765227782138039926,-4.591,-0.551,-2.879,-0.025233,-0.085517,-0.040249
1765227782163332720,-3.921,-5.671,-3.164,0.541276,-0.1051,0.097457
1765227782188675388,-11.096,-0.446,-9.938,0.947037,-0.267416,-0.241346
1765227782213862389,-11.489,-2.853,-8.521,-0.16061,-0.287839,0.237114
1765227782238591765,-3.154,-6.377,-17.706,-0.04128,-0.223116,0.482229
1765227782262975473,-8.186,-7.38,1.557,-0.235284,-0.412056,0.256568
1765227782288256183,-2.227,-7.639,2.89,-1.512257,-0.0533,-0.088392
1765227782313386143,-6.813,5.253,-2.784,0.01665,-0.136043,-0.552713
1765227782338073185,-8.53,-1.678,-15.171,-0.108633,-0.063542,-0.284199
1765227782363363353,-6.551,-2.498,-3.707,-0.251435,-0.234415,0.040609
1765227782388680355,-3.857,-2.446,-10.618,0.533849,-0.240797,0.350152
1765227782413314397,-3.833,0.222,3.572,-0.056756,-0.17763,-0.1836
1765227782438243606,-2.686,-3.988,-3.914,0.43711,-0.355402,0.238149
1765227782463150607,-8.732,4.492,-0.641,1.30258,-0.143604,-0.090237
1765227782487843399,-3.207,-8.611,-14.414,1.215142,-0.452606,0.818241
1765227782512713441,-15.748,-5.341,-2.19,-1.111887,0.017613,0.020566
1765227782537887193,-4.244,-6.596,-6.303,-0.395025,0.066254,-0.311666
1765227782563008569,-7.367,-0.693,-7.038,-0.306841,-0.093699,-0.133113
1765227782587674986,-0.12,2.108,-4.511,0.578921,0.010607,-0.455687
1765227782613151946,-1.6,1.304,1.371,-0.539509,-0.378002,-0.878807
1765227782638572032,-22.725,-6.946,-12.758,0.411559,0.78826,0.090826
1765227782662581989,-8.408,-7.104,0.247,-0.12428,0.034558,-0.090449
1765227782687849241,0.526,3.237,1.077,0.642998,-0.400229,-0.049581
1765227782712494491,1.666,-5.649,2.224,-0.280854,-0.478838,0.336957
1765227782738160660,-0.88,1.602,-0.439,0.707496,-0.229038,0.166611
1765227782763667829,-7.651,2.131,-10.634,-0.263746,-0.072616,-0.029044
1765227782787341827,-7.383,-1.474,-3.296,-0.503346,-0.149325,-0.334209
1765227782813633456,-10.034,3.378,-2.446,0.283194,-0.200303,-0.329037
1765227782837227038,-13.601,-9.735,-3.19,-1.004085,-0.128735,0.062538
1765227782863583499,-7.658,-4.502,-8.847,-0.577422,0.302104,-0.074056
1765227782888615334,-12.97,-8.372,-9.869,0.52244,-0.102695,0.372084
1765227782913452793,-5.19,-4.244,-5.41,-0.259047,0.076216,-0.204035
1765227782938699211,-5.4,-4.325,7.031,-1.07143,0.178156,-0.45259
1765227782963171294,-2.226,-0.874,7.039,-1.238269,-0.392815,-0.888487
1765227782988288004,-16.14,-4.202,-14.832,-0.282703,0.744757,-0.449688
1765227783013611422,-9.159,-6.583,-7.283,-0.439497,0.188655,-0.435975
1765227783038393881,-11.037,-2.448,6.627,-1.174226,0.258015,-0.414533
1765227783063472549,0.541,-1.016,-1.147,0.422503,-0.219812,0.060612
1765227783088076591,-8.045,-2.28,-3.073,0.378282,-0.057756,0.09043
1765227783113156301,-8.223,-6.596,-7.2,0.216435,-0.241492,0.296815
1765227783138582428,-6.19,0.892,-0.986,-0.447472,0.240424,-0.203009
1765227783163250262,-11.39,-4.747,-5.909,0.315682,0.027819,-0.034082
1765227783188152054,-14.307,-7.229,2.183,-1.437458,0.033841,0.100833
1765227783212968388,-0.382,-3.668,-13.975,2.941625,0.082091,0.184118
1765227783238289098,-4.728,-6.469,-5.916,-0.993341,-0.274048,-0.765791
1765227783263276516,-4.492,-4.4,-0.0,-0.36596,-0.730521,-0.256541
1765227783288276975,0.858,-0.318,-14.486,1.057242,-0.589059,0.421136
1765227783313010934,-7.116,1.123,6.773,-0.001345,0.088336,-0.130134
1765227783337727810,-5.077,-10.947,-14.741,0.94169,0.260715,0.043652
1765227783362996561,-11.473,1.754,-2.59,0.971288,0.20658,-0.577769
1765227783388341813,-13.516,-0.933,-15.243,-0.053283,0.381585,0.158517
1765227783412577438,-18.012,-6.35,-2.948,-0.081034,0.234326,0.37918
1765227783437809273,-16.131,-6.273,-8.769,-0.996114,0.302796,0.149937
1765227783462452356,-6.831,-9.395,-5.493,0.132585,0.020989,0.008584
1765227783487689650,-6.192,-2.888,-2.367,-0.656318,0.05867,-0.376609
1765227783513869069,-13.715,-4.725,-5.188,0.31026,0.207429,-0.274787
1765227783537267609,-9.05,-3.539,-3.706,-0.001064,0.150864,-0.189416
1765227783563855446,-11.008,-9.134,-5.201,-0.137422,0.009808,0.293673
1765227783588322363,-5.92,-4.064,-0.391,-0.597882,-0.002451,0.072787
1765227783613638365,-10.176,2.169,-7.203,-0.500425,-0.009699,-0.091843
1765227783637705531,-3.697,-1.848,-8.223,0.941623,-0.708329,0.180124
1765227783663133450,-0.78,6.743,-4.171,1.337684,-0.18369,-0.398088
1765227783689542620,-6.941,-11.302,3.934,-1.038255,0.13878,-0.123012
1765227783713193452,-5.18,-1.519,-3.392,0.355373,-0.237251,-0.232863
1765227783739124121,-4.619,-4.75,1.03,-0.175681,-0.277389,-0.199175
1765227783763427288,-3.361,3.607,-1.707,-0.392607,-0.451101,0.088694
1765227783788148830,-10.381,-3.878,-1.053,-0.731641,0.070145,0.080786
1765227783813508832,-8.533,0.285,-5.268,0.195432,-0.478786,0.073403
1765227783838289624,-6.137,-4.883,-1.6,-1.220397,-0.166447,-0.283901
1765227783863616084,-12.114,-5.41,-4.933,0.265137,0.271006,-0.413906
1765227783888397793,-12.833,-5.124,1.823,-0.770112,0.195047,-0.170142
1765227783913018793,-6.71,-8.727,-0.185,0.273645,-0.29001,0.297263
1765227783938205420,-7.505,-1.513,-3.529,-0.150807,-0.144006,0.106081
1765227783962985671,-15.38,-1.076,-7.191,-0.120102,-0.192145,0.394227
1765227783988647839,-9.716,-10.505,-13.488,0.2263,-0.349639,0.430175
1765227784013488632,-11.627,-2.67,-0.489,0.109838,0.248537,0.115578
1765227784038492633,-13.112,-7.888,-2.095,-0.979317,0.246627,0.256655
1765227784063280884,-8.08,-3.851,-7.419,-0.472536,-0.065406,-0.298364
1765227784087908343,-9.912,-5.583,-9.934,0.538877,0.075201,0.086371
1765227784113044761,-5.999,0.365,-0.597,-0.151495,-0.059645,-0.988955
1765227784138277179,-12.49,-7.225,-12.116,0.312933,0.272058,0.63343
1765227784162667179,-3.35,-5.588,4.006,-1.113277,0.012313,-0.043951
1765227784188260639,-4.936,-3.578,-4.302,-0.784371,0.031131,-0.434645
1765227784213440682,-7.672,1.847,-4.641,0.040835,-0.24756,-0.015449
1765227784237999349,-6.601,-5.043,-6.034,0.127869,-0.245787,0.107094
1765227784262831225,-3.596,2.327,-3.251,0.46988,-0.138128,-0.058518
1765227784288427936,-6.929,-3.051,-3.384,0.29656,-0.164567,0.142625
1765227784313602812,-4.857,-1.381,-5.429,0.119458,-0.106255,-0.123432
1765227784337632311,-13.062,-7.135,-7.849,0.10902,0.077404,0.120935
1765227784363886731,-7.098,-3.471,-3.084,-0.201206,-0.060859,-0.00636
1765227784389085524,-13.073,-7.972,-5.467,-0.554415,-0.042009,0.042101
1765227784413118524,-7.48,-2.533,-2.365,-0.285017,0.070463,-0.320752
1765227784438560192,-4.364,-2.415,6.428,-1.156868,-0.050071,-0.647379
1765227784463456818,-11.658,-2.794,-7.449,-0.039022,-0.156773,0.106749
1765227784488145069,-4.384,-1.829,-2.717,1.109653,-0.119626,0.604896
1765227784513124570,-7.705,-5.284,-1.178,0.006732,0.198112,0.348567
1765227784538218655,-9.567,-7.017,-7.302,-0.088413,0.113171,-0.045924
1765227784563314906,-9.913,-4.008,-4.056,0.249265,-0.126157,0.044516
1765227784588067865,-7.062,-9.321,-6.644,0.188595,-0.36739,0.466507
1765227784612901157,-15.013,-3.475,-9.211,-0.247722,-0.009168,-0.109698
1765227784638679160,-4.9,-3.715,-3.178,0.026557,-0.116809,-0.019848
1765227784662912410,-1.223,1.722,-4.518,0.059623,-0.396991,0.169725
1765227784688541328,-1.549,-5.208,-3.402,0.484334,-0.070589,0.187231
1765227784712829453,-5.75,-0.592,2.951,1.137192,-0.211293,-1.475193
1765227784738438705,-17.463,-8.87,-11.34,0.851709,0.42561,0.113234
1765227784763218498,-13.209,-5.827,-3.503,-0.887524,0.309689,0.013928
1765227784788117582,-5.958,-1.433,-6.386,1.551202,0.009314,0.264595
1765227784813234667,-5.562,-10.695,8.655,-1.55727,0.114286,-0.355974
1765227784838117001,-5.702,-1.66,-2.77,-0.307001,0.053589,-0.025044
1765227784862994877,-9.09,-0.609,-4.231,-0.098739,0.034818,-0.288171
1765227784888451670,-11.19,-4.34,-5.474,-0.131272,0.259566,-0.238371
1765227784912726587,-2.941,-0.602,1.94,0.535594,-0.023335,0.030805
1765227784938301506,-8.367,-5.624,-11.921,-0.114972,-0.051,-0.003411
1765227784962519172,-9.878,-3.827,-6.285,-0.179406,-0.040279,0.101068
1765227784988452842,-3.873,-4.154,-4.688,0.22931,-0.167743,0.303798
1765227785013075425,-3.627,-5.095,-2.334,-0.467668,0.054095,0.172841
1765227785037294550,-13.832,-7.145,-4.646,-0.546502,0.502532,-0.585798
1765227785063704054,-6.9,-8.385,3.177,0.405369,0.374496,-0.714001
1765227785087213469,-7.174,-1.769,11.853,1.147492,-0.633491,-0.133059
1765227785113853015,-0.786,-6.403,1.522,-1.690951,-0.299693,0.025842
1765227785137708305,-5.886,-3.425,-1.491,0.271773,-0.120194,-0.00488
1765227785163247724,-14.859,-0.383,-8.315,0.057398,0.131779,-0.359483
1765227785188505101,-8.996,-7.734,-7.774,-0.503892,0.23988,-0.022527
1765227785213587727,-5.167,-3.045,2.162,-0.689564,0.004288,-0.2761
1765227785239009187,-13.559,-4.032,-8.518,0.04626,-0.122481,0.280646
1765227785263378521,-4.368,-8.78,-4.254,-0.200468,-0.35788,0.17409
1765227785288056396,-12.126,-5.641,0.149,-0.023508,0.032464,-0.095373
1765227785313560190,-10.383,-0.805,-4.465,-0.547479,0.082129,0.039753
1765227785338317524,-6.604,-2.571,-2.872,0.118899,-0.083813,-0.237966
1765227785363517025,-6.241,1.453,-0.64,-0.673754,0.294803,-0.48065
1765227785388394276,-0.829,-2.018,0.402,-0.794193,-0.004263,-0.032496
1765227785412877110,-5.212,-5.198,0.396,-0.552001,0.038951,-0.018784
1765227785438201278,-2.041,-0.409,-1.496,0.858295,-0.548461,-0.018967
1765227785462819529,-13.217,-3.91,-11.312,0.470354,0.242033,0.188586
1765227785488021363,-8.778,-7.558,-3.627,0.167372,0.215838,-0.081968
1765227785513183407,-7.72,-1.609,-4.53,0.600128,-0.035345,0.142558
1765227785537719115,-4.721,-4.95,-5.305,-0.401099,-0.063735,0.000845
1765227785563117409,-7.605,1.614,4.423,-0.806853,-0.164102,-0.404368
1765227785587614326,0.319,-0.477,-5.894,0.434025,-0.287029,0.131684
1765227785612897702,-2.675,-0.82,-6.403,-0.191529,-0.277656,0.040773
1765227785637978620,-7.211,-6.674,-8.109,0.511851,-0.429657,0.175612
1765227785662611079,-10.715,-0.459,0.042,-0.324161,-0.104849,-0.035694
1765227785688295456,-10.062,-5.17,-6.398,0.022547,-0.132468,0.206134
1765227785712469873,-4.549,-2.502,-2.867,-0.135757,0.10187,-0.052557
1765227785738212875,-6.893,0.77,-4.928,0.216972,-0.068879,-0.125059
1765227785763235335,-2.522,-5.774,-2.812,-0.308144,-0.065553,0.129291
1765227785787438209,-11.417,-0.922,-5.761,-0.33602,0.002624,-0.397783
1765227785812797919,-10.914,-5.881,-1.326,0.365017,0.16576,0.184987
1765227785837692087,-8.519,-2.365,-0.339,-0.360945,0.226379,0.15096
1765227785863986965,-1.853,-7.42,-3.452,0.251175,-0.202011,0.037972
1765227785888190174,-2.869,-4.378,-6.429,0.484297,-0.042327,0.094376
1765227785913403342,-6.431,-4.462,-4.634,0.294855,-0.183805,0.419975
1765227785939211969,-13.806,-9.042,-13.834,0.508523,-0.027516,0.331583
1765227785963298510,-10.935,-2.703,-6.13,0.125599,0.221946,0.034971
1765227785989434055,-9.496,1.041,0.713,-0.307686,0.01192,-0.306074
1765227786014143806,-2.454,-4.421,-10.649,0.720478,-0.234612,0.465308
1765227786038411472,-3.389,-2.515,2.629,-0.725317,-0.155606,0.010903
1765227786063551391,-2.87,2.132,-1.64,0.002732,0.019831,-0.090485
1765227786088352975,-3.566,-7.727,-1.536,-0.284787,-0.154104,0.181442
1765227786113115184,-4.236,-0.789,-4.561,0.476709,-0.164827,-0.503816
1765227786138602102,-13.792,1.788,-3.352,-0.634093,-0.134639,-0.550101
1765227786163114936,-10.527,-8.941,-2.547,-0.183186,0.308589,0.549329
1765227786188515563,-3.977,-1.27,-2.671,1.297637,-0.167537,-0.056634
1765227786212874438,-2.866,-7.374,-7.342,0.31891,-0.27177,0.269313
1765227786238445440,-10.464,-1.132,0.927,-0.853504,0.092343,0.011869
1765227786263629858,-3.431,-6.566,-4.695,0.484425,-0.014408,0.110389
1765227786288039442,-6.674,-6.789,-7.276,-0.067493,-0.133847,0.223038
1765227786313345235,-15.101,1.186,-14.497,-0.166443,-0.003184,-0.144426
1765227786337706610,-9.335,1.176,-5.757,0.349599,0.021507,-0.165666
1765227786363204779,-12.544,-4.983,-7.091,-0.72929,0.050945,-0.405189
1765227786388478364,-8.927,-5.692,-6.098,-0.077944,-0.005985,0.109769
1765227786412600363,-14.616,-0.405,-3.595,-0.013927,0.108624,0.216771
1765227786437963532,-12.95,-7.448,-10.457,0.176325,-0.05677,0.173064
1765227786462548532,-10.396,-4.26,-6.299,0.192253,-0.015603,-0.050816
1765227786488005284,-7.498,2.511,-2.94,-0.267419,0.028806,-0.255315
1765227786513163202,-7.931,-8.775,-2.918,-0.367722,-0.171311,-0.111897
1765227786537425036,-7.956,-4.264,-9.96,0.981989,-0.304975,0.065624
1765227786562964454,-12.461,-2.795,-1.584,0.04252,0.201078,-0.116762
1765227786587498038,-4.119,-6.542,-7.702,0.084635,0.11682,0.11195
1765227786613719208,-4.278,-1.344,-4.758,-0.067887,0.069161,-0.046911
1765227786637708666,-5.588,-4.787,-4.37,-0.300846,0.121694,-0.127575
1765227786663730710,-12.024,-3.461,-4.382,-0.500209,0.195845,-0.158987
1765227786687838668,-8.679,-2.112,-4.717,0.439681,0.095644,-0.043883
1765227786713624379,-6.53,-5.586,-4.222,-0.685074,0.260473,-0.01754
1765227786738953381,-8.625,-1.105,-2.388,0.261175,-0.0255,0.150478
1765227786763564423,-9.267,-2.457,-7.654,-0.132623,0.039994,0.066222
1765227786788432507,-8.165,-2.531,3.33,-1.020359,0.314797,-0.128947
1765227786813487800,-16.278,-8.974,-11.468,-0.623999,0.222158,0.043957
1765227786838402718,-12.365,-9.2,-7.074,-0.144745,0.11241,0.288205
1765227786863373844,-11.482,-3.724,-3.0,-0.375883,0.111771,0.122282
1765227786888328595,-9.83,-3.629,-7.434,0.493309,-0.057424,0.015357
1765227786913010304,-8.085,-4.573,-1.971,0.925363,0.041969,0.046827
1765227786938967807,-1.399,2.625,-13.51,0.857125,0.125187,0.302709
1765227786963127473,-5.782,-0.24,-1.187,-0.193094,-0.072147,0.113895
1765227786988335058,-5.435,-6.934,-6.376,0.857195,-0.002291,0.057603
1765227787013338309,-10.439,-2.791,-4.11,-0.202525,0.25888,0.001185
1765227787037885560,-8.726,-5.888,-3.25,-0.591721,0.37263,-0.043061
1765227787063220936,-2.081,2.939,-2.186,0.308756,-0.220154,-0.04993
1765227787088149437,-2.662,-10.032,-11.015,0.952077,-0.17108,0.396169
1765227787113084397,-8.821,-3.855,-5.43,0.460739,-0.119471,0.237669
1765227787139181858,-10.494,-2.802,-7.362,0.229769,0.112528,0.149597
1765227787163231066,-0.869,-6.833,-2.208,0.375664,-0.244165,0.220061
1765227787188488943,-2.348,-2.525,-2.161,0.015595,-0.260348,0.022052
1765227787213076360,-0.937,-5.427,3.265,-1.916884,0.256156,-0.150442
1765227787238088986,-1.485,-5.227,2.805,-0.578001,-0.332984,-0.716044
1765227787262988696,-7.089,1.625,-12.37,0.375921,-0.081364,0.006003
1765227787287496821,-1.819,-1.046,-5.632,0.85898,-0.082866,0.338719
1765227787313405324,-13.479,-3.512,-5.473,0.197898,-0.113929,-0.017343
1765227787338063533,-9.728,3.134,-6.295,1.145155,-0.12299,0.033489
1765227787363299534,-4.864,-2.421,0.56,-0.668005,-0.010872,-0.060258
1765227787387946826,-10.561,3.619,-2.183,1.019921,-0.235569,-0.282515
1765227787412253535,-1.88,3.029,-3.933,-0.114954,-0.282703,-0.160608
1765227787437523953,-12.853,0.285,0.943,-0.676933,0.102494,-0.322927
1765227787463221664,-9.065,-0.369,-7.015,0.732498,0.071346,-0.001138
1765227787487276497,-13.406,-6.854,-0.78,-0.248628,0.171452,0.013753
1765227787513204333,-3.222,-4.122,-4.966,0.228151,-0.139533,0.144042
1765227787538440876,-2.249,0.163,2.038,-1.01415,-0.143115,-0.28966
1765227787563219460,-3.691,-4.708,3.421,-0.721928,0.091753,-0.036053
1765227787589153713,-1.493,-5.622,1.377,0.437754,-0.265212,-1.053215
1765227787613558630,-9.865,-4.163,-10.067,-0.867769,0.208647,-0.261371
1765227787638293006,-9.871,-9.084,-12.274,0.275209,0.134247,0.318136
1765227787663474465,-1.496,-1.625,-2.074,1.060781,-0.445139,0.202291
1765227787688288258,-8.389,3.381,-9.728,0.752751,-0.11501,0.175121
1765227787713980635,-17.303,-3.76,-8.845,-0.238807,0.144956,-0.172154
1765227787738840803,-10.607,-3.196,1.473,-0.060419,0.278173,-0.083677
1765227787763512179,-10.779,-5.299,-3.616,-0.146856,0.125585,0.080742
1765227787788642722,-4.664,-6.48,-6.629,-1.024296,0.058132,0.064551
1765227787813213305,-9.277,-2.816,-6.937,0.950158,-0.011947,0.161895
1765227787838160890,-6.719,-6.903,-0.63,-0.538506,0.148391,-0.06812
1765227787863558475,-5.857,-7.396,-6.206,-0.536601,0.077214,0.027091
1765227787888187767,-5.138,-3.597,-7.164,0.432411,0.101114,-0.065679
1765227787913483686,-5.666,-3.925,-0.229,-0.622688,0.167927,-0.346035
1765227787938071644,-3.813,-8.26,2.103,-0.012073,0.062315,-0.246784
1765227787963041479,0.972,-6.19,3.845,-0.562284,-0.475886,-0.501305
1765227787987985980,-2.89,-7.369,-11.411,-0.946444,0.376502,-0.290875
1765227788012850231,-8.216,-7.006,-2.745,-0.162877,0.016283,0.140017
1765227788038019399,-8.686,-1.463,-2.685,-0.519393,-0.162937,-0.300025
1765227788062792567,-8.258,-2.113,-6.351,0.044432,-0.207201,0.03156
1765227788087692068,-11.026,-5.244,-3.042,0.055558,0.203678,0.090416
1765227788113280778,-11.58,-5.673,-1.686,-0.413017,0.09325,0.0668
1765227788137394820,-10.12,-7.64,-1.825,0.112871,0.131162,0.098479
1765227788163273781,-1.79,-3.956,-5.596,-0.069664,-0.131873,0.297485
1765227788187310614,-7.272,-0.555,-2.068,0.556026,-0.006209,-0.170035
1765227788213545867,-7.307,-3.265,-3.075,-0.489437,0.273379,-0.258786
1765227788237729992,-12.174,0.46,-3.787,0.154849,-0.139627,0.118323
1765227788263113577,-6.583,-1.205,-1.047,0.350743,0.077695,0.112354
1765227788288554371,-7.306,0.039,-1.377,-0.215843,-0.147875,-0.011736
1765227788313603122,1.576,7.005,-17.544,2.817175,-0.803703,0.645331
1765227788338500790,2.707,6.598,-7.28,1.69101,-0.292673,-0.012716
1765227788363517957,-6.99,-10.478,-4.956,-2.261061,0.573489,0.412839
1765227788388199333,-8.633,-0.749,4.704,-0.170166,-0.031583,-0.459786
1765227788412959251,-13.713,0.953,-6.991,0.205799,0.733798,-0.607861
1765227788437890502,-2.495,2.056,3.132,-0.376174,-0.195268,-0.706028
1765227788463131378,-9.278,-8.414,-4.359,-1.018866,0.229442,0.087102
1765227788487922338,-6.222,0.74,3.169,0.405272,-0.172465,0.188775
1765227788512908547,-6.685,-2.005,-10.431,0.733664,-0.048636,0.095084
1765227788537917923,-10.486,-4.11,-2.752,-0.923923,0.178004,-0.520601
1765227788562977466,-12.058,-8.293,-8.241,0.33977,0.066127,-0.223353
1765227788588104676,-12.973,-5.729,-3.381,-0.223068,0.372981,-0.245299
1765227788613059219,-2.893,-3.697,4.228,-0.259389,0.065034,-0.308946
1765227788638410096,-9.135,-1.048,-9.748,1.149592,-0.239312,0.266962
1765227788663488639,-9.832,-7.616,-7.271,-1.152227,0.107426,0.047131
1765227788688362223,-1.74,-3.393,7.717,0.18266,-0.270638,0.085664
1765227788712966515,-4.057,-0.646,-4.201,-0.780009,-0.449107,0.087298
1765227788738013433,-9.667,0.383,-2.7,0.518158,-0.010351,-0.014938
1765227788762772476,-9.189,-3.333,0.986,-0.014129,0.03533,-0.183055
1765227788788419853,-10.166,-7.11,-0.992,-0.652695,0.260287,-0.329315
1765227788812946395,-7.966,-1.914,-2.754,0.373317,0.04204,-0.150388
1765227788838185438,-24.796,-5.725,-13.891,-1.296108,0.474066,-0.317734
1765227788863010273,-9.548,-2.658,2.666,-0.523958,0.316444,-0.116335
1765227788888277524,-10.488,-1.798,-4.893,0.216551,0.177386,-0.203249
1765227788913438609,-6.662,-3.414,-1.529,-0.012285,0.041698,0.215087
1765227788938295860,-5.167,1.98,-3.261,0.236264,-0.129348,0.102162
1765227788963364070,-2.175,-0.08,-10.648,0.415658,-0.372377,0.136359
1765227788987986695,-12.065,-2.84,-4.631,-0.25195,-0.232083,0.250319
1765227789013231489,-6.514,-5.607,-6.009,-0.10809,0.079945,-0.358175
1765227789037428447,-5.334,-5.18,-4.4,0.258119,-0.115532,0.177563
1765227789063340866,-8.074,-2.84,-3.035,0.334397,0.31293,-0.031941
1765227789088430159,-0.668,-2.468,3.305,0.07544,-0.592356,-0.183945
1765227789113513036,-11.361,-3.683,-13.39,0.481339,-0.175898,0.135267
1765227789138611412,-18.111,-6.988,0.746,-1.235498,0.50058,-0.351809
1765227789163216746,-11.288,-8.666,-6.634,1.142729,-0.016547,0.048151
1765227789188243872,-13.455,-2.094,1.832,1.060321,0.158049,0.701691
1765227789213356499,-7.307,-2.801,-6.1,0.191697,0.014091,-0.314509
1765227789238209791,-10.932,-7.178,-4.458,-1.076694,0.18192,-0.130731
1765227789263331043,-4.522,-4.971,-7.58,1.181236,-0.372657,0.288027
1765227789288156919,-5.471,-0.821,-1.38,-0.730639,0.135726,-0.329314
1765227789312933461,-10.308,-4.023,-5.157,-0.069167,-0.124149,0.205269
1765227789338364963,-11.885,-6.209,-7.866,-0.18522,0.052693,0.08762
1765227789363281214,-6.776,-6.846,-16.118,0.795829,-0.342863,0.486821
1765227789387873715,-5.509,-7.256,-0.759,0.014516,-0.100895,0.065286
1765227789412831675,-6.435,-5.058,-6.023,0.063739,0.121882,-0.055036
1765227789437636675,-4.411,0.339,-3.602,0.668369,-0.27666,0.315295
1765227789463178178,-9.103,-2.195,-7.466,-0.068123,-0.103724,0.034331
1765227789488088679,-9.174,-5.23,-4.75,-0.407664,-0.010848,0.034396
1765227789512679763,-9.015,-4.706,-11.239,1.231923,-0.141301,0.382264
1765227789538025598,-12.211,-2.369,-4.104,-0.395383,-0.098221,0.173097
1765227789562715973,-4.967,-3.346,-1.521,0.304044,0.199076,0.374184
1765227789588318726,-1.506,1.282,-3.326,0.176237,-0.57425,-0.259172
1765227789613032601,-1.364,-10.612,-13.971,0.087491,-0.115891,0.626894
1765227789637692935,-14.394,-0.695,-7.725,0.408901,0.060886,0.134591
1765227789663975647,-14.046,0.264,-3.874,-0.00337,0.273956,-0.118895
1765227789687729605,-12.286,-5.832,-13.028,0.727148,0.010208,0.099173
1765227789713849858,-16.636,-5.963,-4.133,0.353251,0.556731,0.349806
1765227789738118900,-8.083,-6.959,3.25,0.335997,0.151263,-0.489555
1765227789763518985,-4.615,-5.218,1.919,1.398954,-0.235428,0.809674
1765227789788580569,-3.743,-7.311,-6.245,0.019431,0.017916,0.256826
1765227789813349237,-8.496,-0.825,-4.52,-0.351164,0.023668,-0.346803
1765227789838115780,-7.943,2.045,-6.322,-0.259162,-0.213222,-0.217592
1765227789864137532,-8.585,-4.384,-7.128,0.20711,-0.101963,0.045846
1765227789888051407,-6.32,-4.325,-4.163,0.059517,-0.021504,-0.054867
1765227789914044701,-7.945,-2.89,-6.188,-0.299704,0.077517,-0.06809
1765227789938284451,-5.28,-1.336,-0.315,-0.086714,-0.060777,-0.289679
1765227789963240953,-6.286,-2.64,-4.217,0.539587,-0.11607,0.084784
1765227789988150912,-5.507,-1.602,1.525,-0.347263,-0.086603,-0.092388
1765227790012974705,-9.904,-2.826,-6.555,-0.569386,0.022155,-0.243158
1765227790038246581,-3.43,-1.73,-4.194,0.206307,-0.03319,0.078832
1765227790063174166,-7.599,2.407,-2.358,0.214131,-0.181755,-0.177707
1765227790088096667,2.132,1.559,-0.403,0.345407,-0.256871,-0.155088
1765227790113952920,-3.054,2.225,-1.974,-0.263141,-0.655765,-0.801186
1765227790138138753,-16.164,0.371,-10.762,0.801583,1.064862,-0.107221
1765227790163145046,-1.592,-5.823,-5.031,-0.92135,0.41439,0.27611
1765227790188615756,-3.657,-7.595,-0.859,-0.287529,-0.441228,0.27652
1765227790213227299,-6.021,-1.244,-3.351,0.44905,-0.081711,0.176172
1765227790238658592,-10.673,-1.554,-1.388,0.45159,0.115481,-0.182655
1765227790263928719,-5.539,-6.053,1.393,-0.377604,0.046843,-0.082297
1765227790288053427,-5.914,-4.28,-4.973,0.359055,0.025299,-0.163671
1765227790313353137,-3.949,1.963,-6.898,1.424783,-0.12516,0.077552
1765227790337613054,-5.172,-6.246,-10.403,0.356176,-0.098788,0.083537
1765227790362457847,-10.139,-0.561,-5.677,0.99145,-0.084124,-0.360513
1765227790387236014,-4.032,-1.647,-3.474,1.205636,-0.23785,0.328739
1765227790412162682,-4.848,-6.266,-4.565,-0.296098,-0.147357,-0.031806
1765227790437138225,-7.289,0.237,3.781,-0.48997,-0.017888,-0.246846
1765227790463207478,-6.239,1.165,-5.533,0.167556,-0.018997,-0.195938
1765227790487133602,-18.021,1.173,-13.361,-0.708092,0.233852,-0.361169
1765227790513063689,-15.336,-0.139,-9.824,0.150424,0.265394,-0.166398
1765227790537050730,-8.936,-5.594,-1.257,-0.157204,0.188132,0.131295
1765227790563116358,-9.868,-0.381,-2.801,0.273168,-0.000444,0.060654
1765227790587097024,-9.456,-5.808,-4.799,0.466495,-0.108825,0.281875
1765227790613064777,-9.171,-5.086,-2.466,-0.272227,-0.013395,0.028343
1765227790639266239,-3.057,-4.867,1.87,-0.126116,-0.183295,0.009273
1765227790663048113,-6.174,-4.535,-4.785,0.105603,0.178632,-0.274024
1765227790688449615,-8.84,-3.875,-3.279,0.04884,-0.117568,0.000777
1765227790713092740,-8.883,-2.47,-0.59,0.652533,0.133603,0.107121
1765227790738358992,-9.99,-5.443,4.68,-0.69923,0.331409,-0.349795
1765227790763482035,-6.868,-4.573,1.214,-0.469632,0.065577,0.002731
1765227790788048953,-2.493,-4.339,-2.186,-0.246778,0.08039,0.017242
1765227790813891330,0.39,-2.218,-7.121,0.127251,-0.192462,-0.03352
1765227790837891496,-5.532,-2.898,-2.338,-0.989773,-0.070619,-0.316307
1765227790863241873,-1.813,5.346,5.59,1.200193,-0.340779,-0.204542
1765227790888437875,-7.259,0.634,-17.066,-0.139608,0.223224,0.148414
1765227790913196542,-7.14,-7.439,-6.149,0.08641,0.463875,0.009301
1765227790938510461,-14.195,-3.914,-5.739,0.223593,0.175518,-0.050416
1765227790963170920,-11.251,-3.869,-4.471,-0.913763,0.179912,-0.06646
1765227790987906004,-7.743,-7.336,-0.432,0.250814,0.117749,0.060889
1765227791013599298,-12.373,-6.819,-9.864,1.128641,0.014752,0.036567
1765227791038082382,-13.322,-6.385,-6.009,0.001679,0.205288,0.108892
1765227791063143050,-4.149,-2.582,-3.853,0.118102,0.262008,-0.105391
1765227791088050260,-10.312,-7.076,-3.589,0.191774,0.05748,-0.091201
1765227791112578385,-9.488,-3.88,-5.084,0.808618,0.065297,-0.088341
1765227791137513720,-10.349,-3.673,3.535,-0.606441,-0.034164,-0.578318
1765227791162729221,-4.837,-4.988,-0.871,0.794164,-0.116858,0.223992
1765227791188047223,-2.679,-3.599,-3.384,-0.260819,-0.18547,0.057537
1765227791214283643,-2.193,-3.42,-3.79,0.181118,0.055785,0.156416
1765227791237870225,-3.377,-3.086,7.347,-0.012641,-0.132294,-0.038312
1765227791263691228,-11.18,-3.557,-12.936,0.171752,-0.028205,-0.060552
1765227791289289522,-8.527,-2.333,-7.928,0.364455,0.079649,-0.064237
1765227791313507980,-13.41,-3.806,-8.149,-0.570536,0.032284,-0.060229
1765227791338161606,-8.017,-4.375,-8.205,0.3639,-0.160198,0.290757
1765227791363261858,-9.388,2.893,-11.488,1.947341,0.04328,-0.112695
1765227791388677318,-17.043,-9.623,-3.58,-0.808757,0.513635,-0.080184
1765227791413086152,-2.765,-3.081,-0.128,1.05866,-0.09835,0.377282
1765227791438418237,-7.629,-5.01,-1.863,-0.782042,0.103663,-0.077026
1765227791463088446,-6.757,-7.609,4.074,-1.540476,0.06057,-0.213051
1765227791488429948,-5.937,-6.603,-19.359,0.550176,0.068201,0.136321
1765227791513457574,-10.65,-3.735,-1.559,-0.696491,0.043403,-0.263714
1765227791538315325,-2.658,-0.015,3.97,0.218762,-0.045701,-0.00841
1765227791563261535,-6.984,-4.877,-6.725,0.369769,-0.169833,0.143089
1765227791588661120,-7.583,-2.87,-4.076,-0.46508,-0.036104,0.051686
1765227791613575204,-0.742,-3.339,-3.364,0.076758,-0.155646,-0.032226
1765227791639087082,-6.612,-3.152,-4.589,-0.421419,0.06581,-0.300248
1765227791663540915,-8.812,-5.174,-3.781,-0.299153,-0.044036,0.000859
1765227791689300001,-6.514,-1.096,-7.995,0.67777,-0.215232,0.021978
